time,ax,ay,az,atotal
0.000,-0.01,-1.58,-2.28,2.78
0.010,0.61,-0.80,-1.31,1.65
0.020,0.71,-0.91,-0.47,1.25
0.030,-0.52,-1.32,-0.14,1.43
0.040,-0.52,-1.87,-0.41,1.99
0.050,-0.15,-2.23,-0.69,2.34
0.060,0.06,-2.67,-0.59,2.74
0.070,0.27,-2.08,1.00,2.32
0.080,0.73,-0.42,-0.05,0.85
0.090,0.67,-0.46,-0.90,1.22
0.100,0.76,-0.47,-0.34,0.96
0.110,0.66,-0.12,0.18,0.70
0.120,0.22,0.38,0.73,0.85
0.130,-0.56,0.96,1.94,2.24
0.140,-1.19,0.85,2.83,3.18
0.150,-1.72,0.27,3.54,3.94
0.160,-1.87,-0.56,3.20,3.75
0.170,-1.82,-1.09,2.24,3.08
0.180,-1.89,-0.79,1.96,2.83
0.190,-1.77,-0.55,1.61,2.46
0.200,-1.98,-0.22,1.28,2.37
0.210,-2.58,0.62,1.27,2.94
0.219,-3.08,1.12,1.72,3.70
0.230,-3.47,1.51,2.47,4.52
0.239,-3.86,2.10,3.48,5.61
0.250,-4.07,2.14,4.05,6.13
0.259,-4.06,1.71,3.72,5.76
0.270,-3.63,0.99,2.93,4.77
0.280,-3.28,0.73,2.44,4.15
0.290,-3.22,1.03,2.69,4.32
0.299,-2.97,1.31,2.60,4.15
0.310,-2.47,1.51,1.50,3.26
0.320,-1.89,2.15,1.54,3.25
0.330,-1.56,2.65,1.33,3.35
0.340,-1.35,2.45,0.30,2.81
0.349,-0.06,1.26,-0.14,1.27
0.359,8.04,-0.77,-1.08,8.15
0.370,7.68,0.18,-5.36,9.36
0.380,3.95,-1.61,-5.40,6.88
0.389,2.50,-1.48,-1.54,3.28
0.399,-0.09,-0.47,0.79,0.92
0.409,-1.50,-0.59,-0.10,1.62
0.419,-2.56,-1.49,-0.33,2.98
0.429,-4.66,-3.32,-1.95,6.05
0.439,-7.89,-6.70,-3.21,10.83
0.449,-4.96,-7.70,0.34,9.17
0.459,-0.73,-5.39,0.81,5.50
0.469,0.36,-1.51,0.97,1.83
0.479,0.53,0.75,0.02,0.92
0.489,-0.18,1.31,-2.48,2.81
0.499,1.12,1.05,-3.47,3.80
0.509,0.82,1.35,-2.66,3.09
0.520,-0.31,0.84,-1.30,1.58
0.529,-0.45,0.34,-0.97,1.13
0.539,-0.47,-0.03,-0.76,0.90
0.549,-1.46,0.94,-0.75,1.89
0.559,-2.34,1.58,-1.63,3.26
0.569,-3.40,2.24,0.91,4.17
0.579,-4.64,3.61,3.16,6.68
0.589,-4.69,2.97,4.02,6.85
0.599,-5.62,2.08,4.49,7.48
0.609,-6.61,1.57,5.55,8.77
0.619,-5.41,0.44,5.64,7.83
0.629,-5.59,0.39,6.48,8.57
0.639,-6.86,2.24,7.43,10.36
0.649,-6.86,2.89,7.59,10.63
0.659,-6.85,3.23,6.98,10.30
0.669,-6.83,3.69,5.14,9.31
0.679,-7.16,4.56,3.04,9.02
0.689,-8.00,5.87,1.98,10.12
0.699,-7.55,6.78,0.79,10.18
0.709,-4.79,6.87,-2.17,8.65
0.719,-3.57,7.41,-2.68,8.65
0.729,-3.35,7.47,-2.31,8.51
0.739,-2.60,7.12,-3.16,8.22
0.749,-1.58,7.22,-4.90,8.86
0.759,-0.47,7.77,-6.07,9.87
0.769,1.64,8.35,-7.18,11.14
0.779,4.45,8.76,-8.33,12.89
0.789,6.67,9.01,-8.81,14.26
0.799,8.21,9.20,-8.72,15.10
0.809,8.97,8.64,-8.38,15.01
0.819,9.11,7.50,-8.08,14.30
0.829,9.47,6.22,-7.16,13.40
0.839,9.74,4.87,-5.67,12.28
0.849,10.07,3.62,-4.54,11.63
0.859,10.44,2.68,-4.03,11.51
0.869,10.64,1.87,-3.48,11.35
0.879,10.49,1.15,-3.00,10.97
0.889,9.84,0.80,-2.66,10.22
0.899,8.90,0.61,-2.74,9.33
0.908,7.76,0.35,-3.09,8.36
0.919,6.61,0.17,-3.54,7.50
0.928,5.99,-0.05,-3.41,6.89
0.938,4.87,-0.39,-2.78,5.62
0.948,3.34,-0.13,-1.35,3.60
0.959,3.79,-0.05,0.89,3.89
0.969,4.10,-1.13,3.01,5.21
0.979,3.60,-2.71,4.86,6.63
0.988,2.69,-3.76,5.88,7.48
0.999,1.69,-4.11,6.02,7.48
1.008,1.38,-3.85,5.59,6.93
1.019,1.83,-3.47,5.00,6.36
1.028,1.00,-2.77,3.86,4.86
1.039,0.15,-1.17,2.35,2.63
1.048,-1.25,0.72,0.69,1.60
1.058,-1.96,1.69,0.28,2.61
1.068,-2.18,2.43,-1.43,3.56
1.079,-1.04,1.43,-0.76,1.93
1.088,1.27,-1.29,1.77,2.53
1.098,-1.46,-0.47,2.85,3.24
1.108,-3.02,0.72,0.90,3.23
1.118,-3.14,0.86,-1.44,3.56
1.128,-2.91,0.83,-1.92,3.58
1.138,-2.67,0.33,-2.17,3.46
1.148,-4.66,0.21,-2.41,5.25
1.158,-3.97,0.36,-2.07,4.49
1.168,-2.99,-0.15,-1.69,3.44
1.178,-2.49,-0.84,-1.35,2.95
1.188,-0.44,-1.03,0.46,1.22
1.198,-0.35,-1.28,-0.00,1.32
1.208,-2.74,0.30,-1.42,3.10
1.218,-0.19,-1.02,-2.03,2.28
1.228,1.55,-1.20,-0.69,2.08
1.238,1.15,-0.87,-0.11,1.45
1.248,1.52,-2.00,-0.54,2.57
1.258,1.87,-2.34,-0.49,3.04
1.268,2.89,-1.65,-0.01,3.33
1.278,3.15,0.05,-0.48,3.18
1.288,3.25,0.23,-1.09,3.43
1.298,4.15,-1.25,-0.77,4.40
1.308,4.45,-1.57,-0.82,4.79
1.318,4.82,-0.93,0.50,4.93
1.328,4.64,-0.72,0.31,4.71
1.338,3.94,-1.09,0.03,4.09
1.348,3.18,-0.61,0.64,3.30
1.358,2.88,0.07,1.43,3.21
1.368,2.33,0.17,1.80,2.95
1.378,1.63,0.48,1.03,1.99
1.388,1.21,1.39,0.73,1.98
1.398,1.51,1.44,0.12,2.09
1.408,0.81,0.61,-0.67,1.21
1.418,-0.80,-0.49,-0.47,1.05
1.428,-1.90,-1.11,0.11,2.20
1.438,-2.30,-0.64,0.33,2.41
1.448,-1.79,-0.20,-0.00,1.80
1.458,-0.82,0.03,-0.10,0.83
1.468,0.38,1.54,0.51,1.66
1.478,1.23,2.02,-0.05,2.36
1.488,0.91,0.96,-0.80,1.55
1.498,0.03,-0.47,-0.44,0.64
1.508,-0.75,-1.48,0.12,1.66
1.518,-1.44,-2.08,0.66,2.61
1.528,-2.05,-2.13,1.15,3.17
1.537,-2.52,-1.94,1.37,3.46
1.547,-2.79,-1.78,0.85,3.42
1.558,-2.65,-1.35,0.15,2.98
1.568,-2.37,-1.38,-0.45,2.78
1.578,-2.27,-1.35,-0.19,2.65
1.587,-1.76,-0.59,0.42,1.90
1.597,-1.06,-0.33,0.28,1.15
1.607,-0.74,-0.07,0.45,0.87
1.618,-1.08,0.03,1.23,1.64
1.627,-1.41,-0.04,1.29,1.91
1.637,-1.50,-0.17,0.59,1.62
1.647,-1.43,-0.37,-0.43,1.54
1.657,-1.57,-0.70,-1.02,2.00
1.667,-2.11,-0.47,-0.07,2.16
1.678,-1.58,1.24,0.50,2.07
1.687,-1.14,1.72,0.02,2.07
1.697,-0.68,1.54,-0.16,1.69
1.707,-0.25,2.03,0.41,2.08
1.717,-0.27,1.29,0.69,1.49
1.727,-0.81,-0.51,0.69,1.18
1.737,-0.62,-0.20,1.23,1.39
1.747,-0.26,1.04,1.63,1.95
1.757,-0.27,1.34,0.96,1.67
1.767,-0.46,-0.00,-0.18,0.49
1.777,-0.77,-1.28,-0.52,1.58
1.787,-0.86,-1.22,-0.18,1.50
1.797,-0.77,-0.91,0.39,1.25
1.807,-0.39,-1.23,0.24,1.31
1.817,-0.14,-1.34,-0.19,1.36
1.827,0.08,-0.80,-0.36,0.88
1.837,0.26,-0.97,-0.86,1.32
1.847,0.50,-2.09,-1.29,2.51
1.857,0.92,-2.81,-1.08,3.15
1.867,1.06,-2.20,-0.26,2.45
1.877,1.24,-0.52,-0.25,1.37
1.887,1.06,0.21,-1.18,1.60
1.897,0.93,0.98,-0.83,1.58
1.907,0.95,1.25,-0.10,1.57
1.917,0.46,0.06,1.57,1.64
1.927,-0.38,-0.31,1.94,2.00
1.937,-0.65,0.07,1.34,1.49
1.947,-0.91,-0.64,1.38,1.77
1.957,-1.34,-0.34,0.81,1.60
1.967,-0.90,0.06,-0.64,1.11
1.977,-0.49,-1.56,-1.20,2.03
1.987,-0.06,-1.14,0.49,1.24
1.997,1.80,2.01,2.61,3.75
2.007,3.39,3.64,2.25,5.46
2.017,3.07,2.52,-0.12,3.97
2.027,2.35,2.10,-1.37,3.44
2.037,0.33,1.97,-1.77,2.67
2.047,-0.69,1.78,-1.41,2.38
2.057,-0.61,1.37,-0.79,1.70
2.067,-0.60,0.87,-0.13,1.07
2.077,-0.90,0.07,0.62,1.10
2.087,-1.27,-0.75,0.89,1.72
2.097,-0.76,-0.18,0.61,0.99
2.107,-0.71,0.69,0.64,1.18
2.117,-0.67,1.79,0.57,2.00
2.127,-0.35,2.51,0.28,2.55
2.137,-0.20,2.46,-0.02,2.47
2.147,-0.38,1.83,-0.44,1.92
2.157,-0.81,0.62,-0.56,1.17
2.167,-0.68,-0.15,-0.19,0.73
2.177,-0.44,-0.24,0.05,0.50
2.187,-0.15,-0.32,-0.00,0.35
2.196,-0.04,-0.35,-0.03,0.35
2.207,0.05,-0.29,-0.16,0.33
2.217,0.19,-0.20,-0.58,0.65
2.226,0.17,0.00,-0.71,0.73
2.236,-0.05,0.16,-0.41,0.44
2.246,-0.14,0.39,-0.17,0.45
2.256,-0.10,0.38,-0.20,0.44
2.266,-0.21,0.31,-0.14,0.40
2.276,-0.31,0.22,-0.05,0.38
2.286,-0.21,0.08,-0.12,0.26
2.296,-0.22,-0.07,-0.23,0.33
2.306,-0.36,-0.06,-0.15,0.39
2.316,-0.48,0.05,-0.12,0.49
2.326,-0.51,0.14,-0.14,0.55
2.336,-0.45,0.21,-0.17,0.53
2.346,-0.39,0.17,0.01,0.43
2.356,-0.30,0.09,0.20,0.38
2.366,-0.06,-0.04,0.05,0.09
2.376,0.06,0.01,-0.05,0.08
2.386,-0.15,0.20,0.15,0.29
2.396,-0.14,0.21,-0.62,0.67
2.406,0.09,0.07,-0.44,0.45
2.416,0.03,-0.01,-0.10,0.11
2.426,0.05,0.01,-0.21,0.21
2.436,0.06,0.00,-0.10,0.12
2.446,-0.07,-0.00,-0.00,0.07
2.456,-0.14,0.01,0.05,0.15
2.466,-0.15,-0.05,0.21,0.27
2.476,-0.19,-0.20,0.29,0.39
2.486,-0.26,-0.32,0.19,0.45
2.496,-0.31,-0.43,-0.06,0.53
2.506,-0.27,-0.40,-0.35,0.60
2.516,-0.23,-0.43,-0.42,0.65
2.526,-0.29,-0.62,-0.29,0.74
2.536,-0.11,-0.72,-0.13,0.74
2.546,-0.12,-0.50,0.53,0.74
2.556,-0.32,-0.05,0.14,0.35
2.566,-0.56,0.27,-0.40,0.74
2.576,-0.49,-0.50,-0.22,0.74
2.586,0.06,-0.09,-0.20,0.23
2.596,0.30,0.03,0.14,0.34
2.606,0.29,-0.08,0.56,0.64
2.616,0.46,-0.26,0.86,1.01
2.626,0.68,-0.49,1.38,1.62
2.636,0.79,-0.65,1.66,1.94
2.646,0.84,-0.58,1.56,1.86
2.656,0.68,-0.20,0.94,1.18
2.666,0.43,0.14,-0.09,0.46
2.676,0.20,0.36,-0.91,1.00
2.686,0.15,0.58,-1.45,1.57
2.696,0.02,0.54,-1.51,1.61
2.706,0.12,0.25,-1.24,1.27
2.716,0.03,0.06,-1.16,1.17
2.726,-1.76,0.27,-0.28,1.80
2.736,-2.31,-1.66,1.07,3.04
2.746,-0.81,-3.67,0.69,3.82
2.756,0.88,-3.93,0.32,4.04
2.765,1.57,-2.25,0.39,2.77
2.776,1.57,-0.27,1.22,2.01
2.785,1.44,1.04,1.82,2.54
2.796,1.50,0.92,1.83,2.54
2.806,0.78,0.43,1.50,1.75
2.816,0.21,0.83,-0.67,1.09
2.826,0.58,1.16,-3.04,3.30
2.836,0.12,1.08,-2.60,2.82
2.846,-0.21,1.11,-1.37,1.78
2.856,0.39,1.33,0.09,1.39
2.865,-0.43,1.46,-1.62,2.23
2.876,-1.75,-2.68,-7.47,8.13
2.886,-0.39,-3.98,-0.66,4.05
2.896,0.28,-2.91,2.44,3.81
2.905,0.02,-0.82,2.91,3.02
2.916,0.33,3.06,0.88,3.20
2.925,-0.12,-0.32,3.26,3.27
2.935,-0.37,-9.07,3.79,9.84
2.945,-0.75,-9.86,-2.57,10.22
2.956,-1.01,-4.79,-3.21,5.86
2.965,0.38,-1.12,-0.20,1.20
2.975,2.28,2.29,-0.43,3.26
2.985,3.41,4.45,0.28,5.61
2.995,3.57,4.37,0.10,5.65
3.005,2.80,1.88,-0.45,3.40
3.015,2.03,-1.78,-0.91,2.85
3.025,1.77,-4.63,-1.00,5.06
3.035,1.73,-5.10,-0.78,5.45
3.045,2.13,-4.14,-1.87,5.02
3.055,1.29,-0.08,-2.47,2.79
3.065,-0.03,2.98,-2.77,4.07
3.075,-0.14,4.23,-2.90,5.13
3.085,-0.92,5.07,-1.19,5.29
3.095,-2.80,5.64,-1.22,6.41
3.105,-3.33,4.96,-2.30,6.40
3.115,-3.11,4.74,-1.10,5.78
3.125,-2.51,4.48,-1.18,5.27
3.135,-0.70,2.87,-0.23,2.96
3.145,0.10,2.64,0.39,2.67
3.155,0.86,2.91,-0.41,3.06
3.165,1.64,2.22,-0.44,2.79
3.175,1.96,1.98,-1.14,3.01
3.185,2.40,1.19,-1.51,3.07
3.195,1.33,1.68,-4.52,5.01
3.205,0.04,2.42,-3.93,4.62
3.215,0.06,-0.58,0.33,0.67
3.225,-0.83,-0.99,0.65,1.45
3.235,-2.46,-0.15,0.24,2.47
3.245,-3.40,-0.10,0.08,3.40
3.255,-2.40,-0.98,-0.45,2.63
3.265,-1.78,-1.26,-0.16,2.18
3.275,-2.10,0.32,0.44,2.17
3.285,-1.98,0.74,0.40,2.15
3.295,-2.03,0.16,0.92,2.24
3.305,-1.56,-0.23,0.20,1.59
3.315,-0.94,-0.80,-0.39,1.30
3.324,-0.74,-1.17,0.03,1.38
3.335,-0.61,-1.12,0.24,1.30
3.345,-0.19,-1.93,0.19,1.95
3.355,0.46,-2.61,-0.04,2.65
3.365,0.76,-2.13,-0.36,2.29
3.375,0.53,-1.45,-0.55,1.64
3.385,0.61,-1.54,-0.53,1.74
3.395,0.82,-1.48,-0.49,1.76
3.404,1.09,-1.39,-0.42,1.81
3.415,1.34,-1.28,-0.33,1.88
3.424,1.49,-1.26,-0.35,1.98
3.435,1.60,-1.28,-0.42,2.09
3.444,1.65,-1.13,-0.51,2.06
3.455,1.53,-0.96,-0.76,1.96
3.464,1.46,-0.92,-0.96,1.98
3.475,1.54,-0.85,-1.16,2.11
3.484,1.65,-0.63,-1.30,2.20
3.494,1.71,-0.27,-1.34,2.19
3.504,1.64,0.22,-1.31,2.11
3.515,1.52,0.75,-1.31,2.14
3.524,1.29,1.43,-1.36,2.36
3.535,0.99,2.14,-1.43,2.76
3.544,0.76,2.74,-1.55,3.24
3.555,0.59,3.22,-1.64,3.66
3.564,0.46,3.80,-1.72,4.19
3.574,0.44,4.25,-1.84,4.65
3.584,0.45,4.58,-1.90,4.98
3.594,0.36,4.97,-1.75,5.28
3.604,0.11,5.68,-1.45,5.86
3.614,-0.21,6.52,-1.56,6.71
3.624,-0.48,7.23,-2.38,7.63
3.634,-0.57,7.71,-3.18,8.36
3.644,-0.90,7.80,-2.97,8.40
3.654,-1.72,7.25,-2.36,7.82
3.664,-2.44,6.16,-2.50,7.08
3.674,-2.53,5.05,-2.79,6.30
3.684,-2.12,4.02,-2.80,5.34
3.694,-1.43,3.01,-2.21,3.99
3.704,-0.66,2.04,-1.62,2.69
3.714,0.09,0.86,-1.27,1.53
3.724,0.54,-0.32,-0.71,0.95
3.734,0.72,-1.58,-0.17,1.75
3.744,0.89,-3.45,-0.22,3.57
3.754,0.87,-5.28,-0.31,5.36
3.764,0.68,-6.75,-0.01,6.79
3.774,0.36,-7.53,0.60,7.56
3.784,-0.00,-7.53,0.90,7.58
3.794,-0.54,-6.87,0.63,6.92
3.804,-0.87,-5.86,0.42,5.94
3.814,-0.67,-5.10,0.40,5.16
3.824,-0.21,-4.39,0.26,4.40
3.834,-0.03,-2.48,-0.05,2.48
3.844,0.05,-0.22,-0.55,0.60
3.854,-0.26,1.50,-0.93,1.78
3.864,-0.59,2.65,-1.13,2.94
3.874,-0.70,2.38,-0.88,2.63
3.884,-0.17,0.05,-0.22,0.28
3.894,0.28,-1.64,-0.05,1.67
3.904,0.31,-2.74,0.00,2.76
3.914,0.02,-3.70,0.04,3.70
3.924,-0.31,-4.42,-0.43,4.45
3.934,-0.58,-4.91,-0.98,5.04
3.944,-0.75,-5.26,-1.29,5.46
3.954,-1.12,-5.53,-1.32,5.79
3.964,-1.71,-5.34,-1.26,5.75
3.974,-2.46,-4.53,-0.96,5.24
3.984,-3.13,-3.49,-0.54,4.72
3.994,-3.58,-2.48,-0.57,4.39
4.003,-3.50,-1.48,-1.26,4.01
4.014,-3.17,-0.80,-2.22,3.95
4.024,-2.51,-0.61,-2.38,3.51
4.034,-1.97,-0.15,-2.16,2.93
4.043,-1.86,0.34,-1.77,2.59
4.054,-1.87,0.44,-1.65,2.53
4.064,-1.94,0.31,-1.80,2.67
4.073,-1.61,0.11,-1.92,2.51
4.083,-1.41,0.20,-2.28,2.69
4.094,-1.19,0.84,-2.46,2.86
4.103,-1.00,1.59,-2.40,3.05
4.113,-0.82,2.53,-2.56,3.69
4.123,-0.84,3.68,-2.85,4.73
4.134,-0.97,4.91,-2.81,5.74
4.143,-0.97,6.03,-2.56,6.62
4.154,-0.84,6.80,-2.42,7.27
4.163,-0.70,6.77,-2.12,7.13
4.173,-0.60,6.30,-1.57,6.52
4.183,-0.74,5.79,-0.92,5.91
4.193,-1.10,5.49,-0.32,5.61
4.203,-1.44,5.24,0.14,5.44
4.213,-1.68,4.90,0.82,5.24
4.223,-1.57,4.48,1.62,5.02
4.233,-0.59,4.30,2.24,4.89
4.243,0.68,4.48,2.47,5.16
4.253,1.42,4.27,2.31,5.06
4.263,1.57,3.43,1.92,4.23
4.273,2.08,1.57,1.42,2.97
4.283,3.58,-1.33,1.03,3.95
4.293,3.30,-3.17,0.32,4.59
4.303,2.50,-5.02,-0.35,5.62
4.313,1.74,-7.04,-0.99,7.32
4.323,1.58,-8.68,-1.25,8.91
4.333,1.44,-9.16,-1.91,9.47
4.343,1.56,-8.00,-2.18,8.44
4.353,1.55,-5.40,-2.54,6.17
4.363,1.11,-1.47,-2.05,2.75
4.373,0.27,2.26,-0.54,2.34
4.383,-0.72,4.77,0.85,4.89
4.393,-1.68,6.15,1.73,6.61
4.403,-2.61,6.31,2.20,7.18
4.413,-3.27,4.92,3.18,6.71
4.423,-3.14,2.53,4.55,6.08
4.433,-2.56,-0.41,5.53,6.11
4.443,-2.46,-2.76,5.39,6.53
4.453,-2.17,-4.07,4.52,6.46
4.463,-1.33,-4.40,3.63,5.86
4.473,-0.61,-3.49,2.40,4.28
4.483,0.47,-2.72,0.57,2.82
4.493,1.32,-2.19,-1.21,2.83
4.503,1.46,-1.51,-2.85,3.54
4.513,1.33,-0.74,-3.61,3.92
4.523,1.08,0.65,-3.35,3.58
4.533,1.18,1.55,-2.63,3.27
4.543,1.20,2.26,-1.71,3.07
4.553,0.88,2.55,-0.99,2.87
4.563,0.37,2.60,-0.43,2.66
4.573,0.05,2.33,-0.29,2.34
4.583,-0.01,1.44,-0.86,1.68
4.593,-0.07,0.66,-1.83,1.94
4.603,-0.20,0.24,-2.77,2.79
4.613,-0.11,0.02,-3.35,3.35
4.623,0.05,-0.33,-3.58,3.60
4.633,0.12,-0.85,-3.41,3.52
4.643,0.15,-1.03,-1.85,2.12
4.653,0.37,-0.39,1.14,1.26
4.662,0.88,0.64,3.71,3.87
4.673,0.10,2.39,5.36,5.87
4.682,-2.14,4.10,3.64,5.88
4.693,-3.93,4.39,0.75,5.94
4.703,-5.31,4.54,-0.09,6.99
4.713,-5.96,3.85,-0.34,7.11
4.722,-4.75,-1.32,-0.26,4.93
4.732,-2.90,-8.68,0.18,9.15
4.742,-2.89,-9.79,0.64,10.22
4.753,-3.31,-8.03,0.62,8.71
4.762,-3.27,-6.97,-0.39,7.71
4.773,-3.01,-5.93,-1.24,6.76
4.782,-2.35,-4.75,-1.21,5.44
4.792,-1.31,-3.48,-0.81,3.80
4.802,-0.09,-2.96,-0.03,2.96
4.812,0.94,-2.03,0.97,2.44
4.822,2.04,-0.28,0.78,2.20
4.832,2.72,1.12,-0.39,2.97
4.842,2.22,3.07,-0.82,3.88
4.853,1.01,5.79,-0.34,5.88
4.862,-0.22,8.11,0.65,8.14
4.872,-0.93,6.89,0.91,7.01
4.882,-1.16,0.67,0.39,1.39
4.892,-1.94,-3.62,0.67,4.16
4.902,-2.31,-5.44,0.16,5.91
4.912,-2.09,-6.19,-1.20,6.64
4.922,-1.66,-6.20,-2.22,6.79
4.932,-1.15,-5.63,-2.49,6.26
4.942,-1.03,-5.35,-2.14,5.85
4.952,-1.18,-5.23,-1.42,5.55
4.962,-1.26,-4.67,-0.51,4.87
4.972,-1.05,-3.81,0.02,3.95
4.982,-0.68,-2.71,0.10,2.80
4.992,-0.34,-1.49,-0.20,1.54
5.002,-0.15,-0.09,-0.75,0.77
5.012,-0.17,1.33,-1.39,1.93
5.022,-0.22,2.37,-2.31,3.32
5.032,-0.12,2.54,-3.05,3.97
5.042,-0.07,2.84,-3.11,4.21
5.052,0.05,2.93,-3.02,4.21
5.062,0.27,2.75,-2.91,4.01
5.072,0.60,2.80,-2.65,3.90
5.082,0.80,3.19,-2.01,3.86
5.092,0.90,3.96,-1.32,4.27
5.102,0.90,4.96,-1.24,5.19
5.112,0.78,6.27,-1.75,6.56
5.122,0.55,7.26,-2.08,7.57
5.132,0.18,7.60,-1.78,7.80
5.142,-0.09,7.51,-0.86,7.56
5.152,-0.48,7.15,0.24,7.17
5.162,-0.61,6.77,1.22,6.91
5.172,-0.01,6.51,1.57,6.69
5.182,0.79,6.18,1.07,6.32
5.192,0.94,5.15,0.71,5.28
5.202,0.66,4.02,0.78,4.14
5.212,0.59,2.16,0.49,2.29
5.222,2.15,-1.93,-0.29,2.91
5.232,3.06,-4.71,-0.51,5.64
5.242,2.57,-5.72,-0.08,6.27
5.252,1.55,-6.73,-0.48,6.92
5.262,1.10,-8.15,-0.43,8.24
5.272,1.02,-8.97,-0.22,9.03
5.281,1.87,-7.79,-0.55,8.03
5.292,2.54,-4.95,-0.82,5.62
5.302,2.79,-1.05,-0.66,3.05
5.312,2.52,3.47,0.39,4.31
5.321,2.10,7.41,1.77,7.90
5.332,1.42,9.05,1.79,9.34
5.342,-0.19,8.30,0.39,8.31
5.352,-1.46,5.17,0.66,5.41
5.362,-2.22,1.57,2.44,3.65
5.371,-2.73,-1.15,3.91,4.91
5.381,-2.98,-3.32,4.15,6.10
5.392,-2.86,-4.86,3.59,6.68
5.401,-2.28,-5.36,3.17,6.63
5.411,-1.05,-5.31,2.45,5.94
5.422,0.51,-5.28,1.21,5.44
5.431,1.71,-5.43,-0.27,5.70
5.441,1.94,-5.09,-1.49,5.64
5.452,1.68,-4.37,-2.16,5.16
5.461,1.09,-3.42,-2.29,4.26
5.471,0.45,-1.99,-1.60,2.60
5.481,-0.07,-0.53,-0.59,0.80
5.491,-0.42,1.05,0.26,1.16
5.501,-0.40,2.55,0.72,2.68
5.511,-0.11,3.44,0.53,3.48
5.521,0.12,3.47,-0.07,3.47
5.531,0.42,3.09,-1.07,3.30
5.541,0.51,2.96,-2.16,3.70
5.551,0.12,3.40,-3.12,4.62
5.561,-0.43,4.02,-3.50,5.35
5.571,-0.46,3.68,-3.36,5.00
5.581,0.03,2.74,-2.54,3.74
5.591,0.74,2.32,-0.27,2.45
5.601,1.34,3.22,2.51,4.30
5.611,1.28,5.14,2.94,6.06
5.621,0.59,6.77,1.49,6.96
5.631,-0.72,7.32,-0.60,7.38
5.641,-2.99,7.21,-0.73,7.84
5.651,-4.98,6.18,-0.28,7.94
5.661,-4.31,1.27,-0.40,4.51
5.671,-2.33,-5.44,-0.77,5.97
5.681,-1.84,-7.96,-0.38,8.18
5.691,-1.89,-7.64,-0.03,7.87
5.701,-1.66,-7.35,-0.21,7.54
5.711,-1.26,-7.45,-0.70,7.59
5.721,-0.61,-7.92,-0.90,7.99
5.731,-0.02,-8.56,-0.50,8.58
5.741,0.24,-8.85,-0.01,8.85
5.751,0.33,-8.12,0.17,8.13
5.761,0.52,-6.84,0.22,6.86
5.771,0.87,-5.19,0.62,5.30
5.781,1.50,-2.80,1.43,3.48
5.791,1.65,-0.26,1.94,2.56
5.801,1.27,1.71,1.20,2.45
5.811,0.26,3.76,-0.27,3.78
5.821,-1.02,6.87,-1.72,7.15
5.831,-2.31,10.31,-1.28,10.64
5.841,-3.32,9.87,0.15,10.41
5.851,-3.79,1.14,0.77,4.04
5.861,-4.27,-5.53,0.43,7.00
5.871,-3.13,-7.16,-0.71,7.85
5.881,-1.47,-6.64,-1.58,6.98
5.890,-0.37,-5.24,-1.89,5.58
5.901,-0.09,-3.97,-1.54,4.26
5.910,-0.34,-3.31,-0.82,3.43
5.921,-0.51,-2.43,-0.35,2.51
5.931,-0.42,-1.05,-0.16,1.15
5.940,-0.28,0.08,-0.18,0.34
5.951,-0.11,0.39,-0.25,0.48
5.961,-0.02,0.16,-0.61,0.63
5.971,-0.23,-0.07,-1.28,1.31
5.980,-0.69,-0.34,-2.18,2.32
5.991,-0.92,-0.48,-2.89,3.07
6.001,-0.89,-0.43,-2.90,3.07
6.011,-0.70,-0.31,-2.88,2.98
6.020,-0.41,0.11,-3.21,3.24
6.030,-0.14,0.77,-3.13,3.22
6.040,-0.16,1.22,-2.87,3.12
6.051,-0.23,1.49,-2.61,3.01
6.060,-0.07,1.88,-2.04,2.78
6.070,0.17,3.06,-1.49,3.41
6.080,0.56,4.50,-1.43,4.76
6.090,0.80,5.76,-1.85,6.11
6.100,0.71,6.62,-2.07,6.97
6.110,0.22,7.18,-1.79,7.41
6.120,-0.23,7.40,-1.12,7.48
6.130,-0.43,7.00,-0.53,7.03
6.140,-0.18,6.47,-0.24,6.48
6.150,0.53,6.41,0.10,6.43
6.160,1.17,6.89,0.29,7.00
6.170,1.44,6.66,0.56,6.83
6.180,1.40,5.41,0.94,5.66
6.190,1.03,3.76,1.36,4.13
6.200,0.70,2.34,1.70,2.97
6.210,1.38,-0.26,0.86,1.65
6.220,3.04,-4.22,0.14,5.20
6.230,2.84,-7.07,0.97,7.68
6.240,1.87,-8.91,1.03,9.16
6.250,1.35,-11.00,1.06,11.14
6.260,1.70,-10.86,1.06,11.04
6.270,2.17,-7.93,-0.24,8.23
6.280,2.67,-4.78,-1.92,5.80
6.290,3.05,-2.48,-2.46,4.64
6.300,2.76,-0.06,-1.30,3.05
6.310,1.90,2.38,1.07,3.23
6.320,0.95,4.04,2.24,4.71
6.330,-0.07,4.82,1.44,5.03
6.340,-0.91,3.87,0.77,4.05
6.350,-1.20,1.97,1.86,2.96
6.360,-1.00,0.52,3.80,3.96
6.370,-0.51,-1.11,4.48,4.64
6.380,0.25,-1.95,3.63,4.12
6.390,0.44,-0.93,2.05,2.29
6.400,0.30,0.95,0.26,1.04
6.410,0.30,2.71,-1.55,3.14
6.420,0.31,4.31,-3.39,5.49
6.430,0.39,5.98,-5.00,7.81
6.440,1.06,6.72,-5.57,8.79
6.450,1.79,5.91,-4.10,7.41
6.460,1.85,4.28,-1.80,5.00
6.470,1.23,3.47,0.04,3.68
6.480,1.00,2.61,0.51,2.84
6.489,1.07,1.74,-0.46,2.10
6.500,1.03,0.89,-2.23,2.62
6.510,0.78,0.16,-3.64,3.72
6.520,0.38,-0.85,-4.54,4.63
6.530,-0.14,-2.31,-5.03,5.54
6.539,-0.51,-3.82,-4.02,5.56
6.550,-0.01,-5.11,-1.29,5.27
6.560,1.25,-6.08,2.06,6.54
6.570,1.33,-6.72,3.84,7.86
6.579,-1.33,-5.74,4.54,7.44
6.589,-4.32,-3.90,3.71,6.90
6.599,-6.06,-1.20,2.79,6.78
6.609,-6.96,1.01,1.89,7.29
6.619,-6.98,1.99,1.42,7.40
6.629,-6.60,1.83,1.37,6.98
6.639,-6.35,-0.09,1.76,6.59
6.649,-5.54,-4.24,2.12,7.29
6.659,-4.49,-7.66,1.73,9.05
6.669,-3.70,-8.18,1.03,9.04
6.679,-2.78,-6.10,0.48,6.72
6.689,-1.37,-4.55,0.17,4.76
6.699,-0.33,-3.34,0.83,3.46
6.709,0.30,-1.98,0.88,2.19
6.719,1.57,-0.54,-0.30,1.68
6.729,2.76,0.95,-1.55,3.30
6.739,3.25,2.78,-2.55,4.98
6.749,3.34,5.51,-1.36,6.58
6.759,2.86,8.33,1.47,8.93
6.769,0.94,6.17,2.36,6.67
6.779,-1.89,-0.76,1.21,2.37
6.789,-3.27,-4.69,0.59,5.75
6.799,-3.34,-5.70,-0.24,6.61
6.809,-3.16,-5.34,-0.92,6.28
6.819,-2.96,-4.89,-1.54,5.92
6.829,-2.73,-4.59,-2.26,5.80
6.839,-2.60,-4.28,-2.68,5.68
6.849,-2.67,-3.65,-2.05,4.97
6.859,-2.60,-2.58,-1.17,3.85
6.869,-2.07,-1.06,-0.89,2.49
6.879,-1.17,0.46,-1.21,1.75
6.889,-0.18,1.99,-1.67,2.60
6.899,0.63,3.17,-2.26,3.95
6.909,1.28,4.01,-2.92,5.12
6.919,1.80,4.76,-3.13,5.98
6.929,2.15,5.22,-2.92,6.35
6.939,2.35,5.24,-2.75,6.37
6.949,2.54,5.12,-2.79,6.36
6.959,2.78,4.91,-2.58,6.20
6.969,2.96,4.48,-2.07,5.76
6.979,2.84,4.44,-1.73,5.54
6.989,2.29,4.79,-1.58,5.54
6.999,1.40,4.91,-1.27,5.26
7.009,0.56,4.73,-0.43,4.78
7.019,0.02,4.44,0.39,4.46
7.029,0.19,4.46,0.82,4.54
7.039,1.01,4.38,1.08,4.62
7.049,1.86,3.95,1.11,4.51
7.059,2.15,3.51,0.98,4.23
7.069,1.79,2.85,0.90,3.48
7.079,0.86,2.07,0.87,2.40
7.089,-0.00,0.94,0.65,1.14
7.099,0.20,-2.46,-0.49,2.52
7.109,0.66,-5.64,-0.20,5.68
7.119,-0.10,-7.37,0.48,7.38
7.129,-0.60,-8.34,0.29,8.37
7.139,-0.87,-9.38,-0.61,9.44
7.149,-0.57,-8.58,-0.93,8.64
7.159,0.19,-6.27,-0.63,6.31
7.169,0.41,-3.02,-0.70,3.13
7.179,0.17,1.23,0.07,1.24
7.189,-0.17,5.10,0.71,5.15
7.199,-0.63,7.46,0.79,7.53
7.209,-0.12,6.59,1.28,6.72
7.219,0.84,3.68,3.41,5.09
7.229,1.17,1.35,5.11,5.42
7.239,0.69,-0.82,5.85,5.95
7.249,0.05,-2.34,5.37,5.86
7.259,-0.13,-3.51,4.00,5.33
7.269,-0.19,-4.25,2.61,4.99
7.279,0.13,-4.14,1.17,4.30
7.289,0.41,-2.95,-0.19,2.98
7.298,0.78,-2.41,-1.73,3.07
7.308,0.95,-1.78,-3.12,3.72
7.318,0.81,-0.73,-3.41,3.58
7.328,0.42,0.26,-2.82,2.86
7.338,0.15,0.79,-1.82,1.99
7.348,-0.11,0.93,-0.17,0.95
7.358,-0.49,0.97,1.65,1.97
7.368,-0.72,1.28,2.72,3.09
7.378,-0.60,1.63,2.55,3.09
7.388,-0.20,1.35,1.25,1.85
7.398,0.20,1.13,-0.67,1.33
7.408,0.62,1.23,-2.74,3.07
7.418,0.94,1.38,-4.09,4.42
7.428,1.32,1.18,-4.42,4.76
7.438,1.86,0.76,-3.87,4.36
7.448,2.33,0.53,-2.43,3.41
7.458,2.99,0.96,0.46,3.18
7.468,3.94,2.43,2.61,5.31
7.478,3.30,4.65,2.73,6.33
7.488,0.47,6.42,1.14,6.54
7.498,-3.14,6.77,-0.77,7.50
7.508,-7.32,6.77,0.23,9.98
7.518,-10.19,6.27,0.75,11.99
7.528,-8.97,1.24,-0.14,9.05
7.538,-5.28,-5.66,0.78,7.78
7.548,-4.28,-7.09,1.49,8.41
7.558,-4.10,-6.24,1.09,7.55
7.568,-3.94,-5.84,0.25,7.04
7.578,-3.69,-6.30,-0.36,7.31
7.588,-3.24,-6.88,-0.54,7.62
7.598,-2.54,-7.03,-0.53,7.49
7.608,-1.47,-6.54,-0.67,6.73
7.618,-0.27,-5.22,-0.64,5.27
7.628,0.84,-3.00,-0.69,3.19
7.638,2.16,0.58,-0.16,2.24
7.648,3.65,4.50,0.71,5.84
7.658,4.60,7.27,-0.27,8.61
7.668,5.21,9.79,-1.63,11.21
7.678,5.42,11.33,-0.95,12.60
7.688,4.35,6.11,-0.44,7.51
7.698,1.20,-1.57,-0.36,2.01
7.708,-1.21,-5.43,-0.28,5.57
7.718,-1.67,-7.32,-1.31,7.62
7.728,-0.90,-8.09,-3.19,8.74
7.738,0.19,-7.75,-4.10,8.77
7.748,0.82,-7.18,-4.29,8.41
7.758,0.83,-6.79,-3.56,7.72
7.768,0.51,-6.36,-2.11,6.72
7.777,0.09,-5.86,-0.72,5.91
7.787,-0.33,-4.96,0.14,4.97
7.798,-0.44,-3.54,0.25,3.58
7.808,-0.56,-1.86,-0.17,1.94
7.818,-0.92,-0.12,-0.87,1.27
7.828,-1.53,1.50,-1.76,2.78
7.837,-2.43,2.68,-2.95,4.67
7.847,-3.08,2.95,-3.90,5.78
7.858,-3.22,2.71,-3.87,5.72
7.868,-2.38,1.88,-3.10,4.34
7.877,-1.34,0.95,-2.78,3.23
7.888,-0.90,0.49,-2.77,2.95
7.897,-0.68,0.47,-2.67,2.80
7.907,-0.78,0.76,-2.32,2.57
7.917,-0.82,1.48,-1.62,2.34
7.927,-0.53,2.26,-0.87,2.48
7.937,-0.32,3.35,-0.68,3.43
7.947,-0.24,5.09,-1.10,5.21
7.957,-0.18,6.80,-1.77,7.03
7.967,-0.34,8.40,-2.25,8.71
7.977,-0.57,10.12,-2.42,10.42
7.987,-0.79,11.65,-2.43,11.93
7.998,-0.29,11.77,-1.23,11.84
8.007,0.58,9.18,1.31,9.29
8.017,0.68,6.12,3.66,7.16
8.027,0.25,4.28,4.99,6.58
8.037,0.04,3.29,4.56,5.62
8.047,1.73,0.75,2.78,3.36
8.057,3.54,-4.49,2.46,6.22
8.067,2.97,-7.68,1.97,8.47
8.077,2.22,-10.58,0.76,10.84
8.087,2.02,-13.37,0.23,13.52
8.097,2.74,-12.80,-0.26,13.09
8.107,3.15,-8.79,-1.75,9.50
8.117,3.36,-5.36,-2.76,6.90
8.127,3.28,-3.50,-2.73,5.52
8.137,2.45,-1.97,-0.97,3.29
8.147,1.21,0.12,1.49,1.92
8.157,-0.83,3.18,2.37,4.05
8.167,-2.96,5.93,0.72,6.67
8.177,-4.31,7.14,-2.25,8.64
8.187,-4.80,6.54,-1.03,8.18
8.197,-4.48,3.92,3.03,6.68
8.207,-3.69,1.71,5.16,6.57
8.217,-2.00,1.23,4.70,5.26
8.227,-0.46,2.36,3.14,3.96
8.237,0.04,4.13,1.60,4.43
8.247,0.07,5.69,-0.11,5.69
8.257,-0.04,7.07,-2.31,7.44
8.267,0.65,7.57,-4.14,8.65
8.277,1.84,6.27,-4.35,7.85
8.287,2.08,4.40,-2.76,5.60
8.297,1.83,2.58,-1.81,3.65
8.307,1.42,0.89,-1.91,2.54
8.317,0.75,-0.39,-2.39,2.54
8.327,-0.11,-1.59,-2.53,2.99
8.337,-1.13,-2.25,-2.57,3.60
8.347,-1.90,-2.94,-3.16,4.72
8.357,-2.23,-4.36,-3.51,6.02
8.367,-2.00,-6.06,-2.22,6.76
8.377,-1.09,-7.53,0.21,7.61
8.387,-0.54,-8.80,1.63,8.96
8.396,-1.71,-10.82,2.47,11.23
8.407,-4.65,-10.38,3.10,11.79
8.416,-6.03,-7.11,3.08,9.82
8.426,-5.80,-3.85,3.16,7.64
8.436,-5.00,-1.16,3.45,6.18
8.446,-3.20,1.63,2.63,4.45
8.457,-2.01,3.32,1.05,4.02
8.466,-1.62,2.61,0.70,3.15
8.476,-1.37,-0.92,0.88,1.87
8.486,-0.82,-5.59,0.71,5.70
8.496,-0.87,-6.34,0.10,6.40
8.506,-0.34,-4.55,-1.36,4.76
8.516,0.72,-2.47,-1.86,3.18
8.526,1.36,-0.53,0.35,1.50
8.536,1.42,0.34,1.86,2.36
8.546,1.01,0.90,0.45,1.43
8.556,0.78,2.26,-1.52,2.83
8.566,0.94,4.19,-2.24,4.84
8.576,0.70,5.45,-1.09,5.60
8.586,-0.08,3.41,0.07,3.41
8.596,-1.38,0.15,0.52,1.48
8.606,-3.29,-2.09,0.55,3.94
8.616,-4.71,-3.12,0.55,5.68
8.626,-5.21,-3.27,0.22,6.16
8.636,-4.86,-2.89,-0.61,5.69
8.646,-4.27,-2.08,-1.74,5.06
8.656,-3.90,-1.02,-2.90,4.97
8.666,-3.96,0.40,-3.30,5.17
8.676,-3.87,2.07,-2.51,5.06
8.686,-3.18,3.76,-1.26,5.08
8.696,-1.75,4.90,-0.35,5.22
8.706,-0.16,4.92,-0.55,4.95
8.716,1.20,4.46,-1.67,4.91
8.726,2.30,3.95,-2.82,5.37
8.736,3.26,3.73,-3.55,6.10
8.746,4.09,3.70,-3.75,6.67
8.756,4.74,3.78,-3.66,7.08
8.766,5.17,3.61,-3.60,7.26
8.776,5.36,3.00,-3.52,7.08
8.786,5.32,2.05,-3.26,6.57
8.796,4.76,1.46,-3.08,5.86
8.806,3.88,1.53,-3.15,5.23
8.816,3.00,1.90,-2.94,4.61
8.826,2.22,2.07,-1.97,3.62
8.836,1.58,1.73,-0.46,2.39
8.846,1.25,0.81,0.85,1.72
8.856,1.92,0.13,1.66,2.54
8.866,2.64,0.06,2.00,3.31
8.876,2.60,0.06,2.01,3.29
8.886,2.15,0.22,2.06,2.99
8.896,1.64,0.49,2.18,2.77
8.906,1.08,0.33,1.98,2.28
8.916,1.15,-0.77,1.09,1.76
8.926,1.94,-3.17,-0.21,3.72
8.935,2.52,-4.85,-0.26,5.47
8.946,1.64,-5.80,1.09,6.13
8.956,-0.12,-5.67,1.05,5.77
8.966,-2.72,-3.39,0.59,4.39
8.975,-3.31,-0.84,0.00,3.42
8.986,-1.40,-0.07,-1.20,1.85
8.996,0.27,1.58,-0.72,1.76
9.005,0.64,3.54,0.94,3.72
9.015,-0.06,5.05,2.74,5.75
9.026,-1.31,5.26,2.66,6.04
9.036,-2.02,3.38,2.08,4.46
9.046,-2.07,1.23,2.82,3.70
9.055,-1.77,0.01,3.61,4.02
9.066,-1.98,-0.70,4.13,4.64
9.076,-2.35,-0.95,4.35,5.04
9.085,-2.40,-0.73,3.90,4.64
9.095,-1.96,0.13,2.33,3.04
9.106,-0.64,0.52,0.00,0.82
9.115,0.59,0.61,-1.89,2.07
9.126,1.13,0.93,-2.69,3.06
9.135,1.33,0.90,-2.78,3.21
9.145,1.04,1.07,-2.12,2.59
9.155,0.73,0.84,-0.99,1.49
9.165,0.36,0.41,0.22,0.59
9.176,-0.07,0.34,1.01,1.07
9.185,-0.36,0.29,0.88,0.99
9.195,-0.52,0.19,0.05,0.56
9.205,-0.45,-0.29,-1.74,1.82
9.215,-0.07,-1.22,-3.74,3.93
9.225,0.24,-1.92,-4.39,4.79
9.235,0.38,-2.00,-3.75,4.27
9.245,0.72,-1.86,-2.02,2.84
9.255,1.61,-1.14,0.15,1.98
9.265,3.14,0.37,1.64,3.56
9.275,3.72,1.90,1.98,4.62
9.285,1.19,2.89,1.27,3.38
9.295,-2.73,3.21,0.90,4.31
9.305,-5.61,2.90,1.68,6.53
9.315,-6.57,2.15,1.72,7.12
9.325,-5.78,0.34,1.08,5.89
9.335,-3.89,-4.57,0.58,6.03
9.345,-2.89,-7.31,0.31,7.86
9.355,-3.17,-6.61,0.35,7.33
9.365,-3.43,-5.68,-0.11,6.63
9.375,-2.98,-5.13,-0.85,6.00
9.385,-1.90,-4.24,-0.95,4.74
9.395,-0.40,-3.16,-0.73,3.27
9.405,1.21,-2.38,-0.65,2.74
9.415,2.62,-1.58,-0.52,3.10
9.425,3.91,0.09,0.19,3.92
9.435,4.78,1.88,0.30,5.14
9.445,4.46,3.49,-0.23,5.67
9.455,2.95,5.53,0.11,6.27
9.465,1.41,8.01,1.05,8.20
9.475,-0.45,7.62,1.20,7.72
9.485,-2.08,1.97,0.56,2.92
9.495,-3.50,-2.95,0.47,4.60
9.505,-4.03,-5.26,-0.32,6.63
9.515,-3.36,-6.06,-2.08,7.24
9.525,-2.14,-6.11,-2.83,7.07
9.535,-1.27,-6.26,-2.62,6.91
9.545,-0.86,-6.41,-2.05,6.78
9.555,-0.56,-6.29,-1.48,6.48
9.565,-0.27,-5.87,-0.91,5.95
9.575,0.01,-5.02,-0.42,5.04
9.585,0.31,-3.82,0.07,3.83
9.595,0.75,-2.35,0.10,2.47
9.605,1.03,-0.70,-0.04,1.25
9.615,0.87,0.80,-0.38,1.24
9.625,0.26,2.08,-1.42,2.53
9.635,-0.16,2.63,-2.92,3.93
9.645,-0.37,2.47,-3.66,4.43
9.655,-0.44,2.16,-3.23,3.91
9.665,-0.18,1.79,-2.46,3.04
9.675,0.09,1.55,-1.71,2.31
9.685,0.19,2.18,-1.51,2.66
9.695,0.33,2.70,-1.42,3.07
9.704,0.35,3.48,-1.20,3.70
9.714,0.30,4.42,-0.78,4.50
9.725,0.16,4.90,-0.46,4.93
9.735,-0.29,5.09,-0.20,5.11
9.744,-0.63,5.62,0.25,5.66
9.754,-0.97,5.92,0.88,6.06
9.764,-1.01,6.10,1.50,6.36
9.774,-0.41,6.44,1.80,6.70
9.784,0.24,6.67,1.82,6.92
9.794,0.38,6.25,1.68,6.48
9.804,0.39,5.33,1.22,5.48
9.814,0.45,3.79,0.60,3.87
9.824,0.35,2.13,0.32,2.18
9.834,0.04,0.88,0.36,0.95
9.844,-0.30,-0.08,0.28,0.42
9.854,-0.15,-1.11,-0.12,1.12
9.864,1.25,-3.68,-1.31,4.10
9.874,2.27,-6.78,-1.67,7.35
9.884,2.01,-8.70,-0.26,8.93
9.894,1.43,-9.67,-0.20,9.78
9.904,1.21,-9.50,-0.39,9.59
9.914,1.52,-7.56,-0.77,7.75
9.924,1.19,-4.24,-1.41,4.62
9.934,0.41,-1.15,-2.22,2.53
9.944,-0.63,2.32,-1.93,3.08
9.954,-1.44,7.22,-0.99,7.43
9.964,-1.81,11.45,-0.94,11.63
9.974,-1.99,11.92,-0.67,12.11
9.984,-0.66,9.31,2.21,9.59
9.994,0.19,6.04,6.42,8.82
10.004,-0.29,1.41,8.02,8.15
10.014,-0.95,-2.47,7.29,7.75
10.024,-0.85,-4.13,5.38,6.84
10.034,-0.41,-4.78,2.91,5.61
10.044,0.25,-4.28,0.54,4.32
10.054,0.85,-3.50,-1.07,3.76
10.064,1.33,-3.83,-2.31,4.67
10.074,1.04,-3.53,-3.58,5.13
10.084,0.56,-3.31,-4.37,5.51
10.094,0.21,-3.24,-4.22,5.33
10.104,0.20,-3.23,-3.12,4.49
10.114,0.37,-2.88,-1.59,3.31
10.124,0.31,-2.21,0.15,2.24
10.134,0.19,-1.67,1.47,2.23
10.144,0.25,-1.22,1.97,2.33
10.154,0.53,-0.84,1.48,1.78
10.164,0.71,-0.32,0.55,0.95
10.174,0.78,0.29,-0.51,0.98
10.184,0.74,0.90,-1.55,1.94
10.194,0.38,1.58,-2.39,2.89
10.204,0.13,2.35,-3.02,3.82
10.214,0.38,2.79,-3.09,4.18
10.224,0.75,3.35,-1.76,3.86
10.234,0.80,4.08,0.79,4.23
10.244,0.46,4.58,3.21,5.61
10.254,-0.10,5.79,3.67,6.85
10.264,-0.28,7.12,2.22,7.47
10.274,-1.29,7.34,0.76,7.49
10.284,-3.81,6.65,0.29,7.67
10.294,-5.98,4.37,0.07,7.40
10.304,-5.27,-1.10,-0.09,5.38
10.314,-3.88,-4.16,0.20,5.70
10.324,-3.24,-4.31,0.44,5.41
10.334,-2.51,-3.61,0.27,4.41
10.343,-1.31,-3.23,-0.23,3.49
10.354,-0.17,-3.58,-0.55,3.63
10.363,0.65,-4.06,-0.52,4.14
10.373,1.15,-4.57,-0.16,4.71
10.384,1.46,-5.11,-0.05,5.32
10.394,1.64,-5.39,-0.24,5.64
10.404,1.74,-5.22,-0.32,5.51
10.413,1.86,-4.65,-0.23,5.01
10.423,1.70,-3.56,-0.07,3.95
10.433,1.16,-2.16,0.20,2.46
10.443,0.31,-0.49,0.67,0.88
10.453,-0.71,1.37,1.39,2.08
10.463,-1.47,3.20,1.30,3.75
10.473,-1.39,5.33,-0.58,5.54
10.483,-1.12,6.57,-2.05,6.97
10.494,-0.56,2.38,-1.94,3.12
10.503,-0.64,-2.98,-1.51,3.40
10.513,-1.29,-5.43,-1.37,5.74
10.523,-1.53,-6.60,-1.82,7.01
10.533,-1.32,-6.58,-2.60,7.20
10.543,-0.99,-5.73,-3.02,6.55
10.553,-0.87,-4.70,-2.67,5.48
10.563,-0.99,-3.76,-1.86,4.31
10.573,-0.96,-2.67,-1.05,3.03
10.583,-0.86,-1.24,-0.40,1.56
10.593,-1.03,0.33,-0.20,1.10
10.603,-1.11,1.70,-0.59,2.11
10.613,-0.91,2.52,-1.14,2.91
10.623,-0.58,3.03,-1.48,3.42
10.633,-0.34,3.24,-1.61,3.63
10.643,-0.34,3.21,-1.66,3.63
10.653,-0.57,2.65,-1.70,3.20
10.663,-0.67,2.21,-1.74,2.89
10.673,-0.50,1.92,-1.89,2.74
10.683,-0.26,1.55,-1.85,2.43
10.693,0.02,1.14,-1.68,2.04
10.703,0.06,1.53,-1.73,2.31
10.713,0.01,1.98,-2.02,2.82
10.723,-0.06,2.37,-2.13,3.19
10.733,0.07,2.41,-2.18,3.25
10.743,0.25,2.27,-1.85,2.94
10.753,0.26,2.30,-1.38,2.70
10.763,0.01,2.41,-0.64,2.49
10.773,-0.64,2.35,0.65,2.52
10.783,-0.77,2.23,2.02,3.10
10.793,0.00,2.61,2.64,3.71
10.803,0.99,3.78,2.43,4.60
10.813,1.79,4.94,1.94,5.60
10.823,2.34,5.25,1.64,5.98
10.832,2.55,4.49,1.37,5.35
10.843,2.40,2.96,0.89,3.91
10.852,2.29,1.07,0.35,2.55
10.863,3.22,-1.05,-0.31,3.40
10.872,3.72,-4.72,-1.81,6.28
10.883,2.76,-7.01,-1.74,7.73
10.892,2.00,-7.82,-0.56,8.09
10.903,1.31,-7.44,-0.10,7.55
10.913,0.72,-5.26,0.18,5.31
10.923,0.55,-3.34,-0.52,3.43
10.932,0.83,-0.58,-0.73,1.25
10.942,0.50,3.13,-0.61,3.23
10.953,-0.52,6.55,-0.51,6.59
10.963,-1.27,8.46,-1.15,8.64
10.972,-1.39,7.54,-1.01,7.73
10.982,-1.63,4.42,1.22,4.87
10.992,-2.22,1.62,3.60,4.53
11.003,-2.59,0.05,4.73,5.39
11.012,-2.51,-1.12,4.89,5.61
11.022,-2.11,-2.08,4.54,5.43
11.032,-1.41,-2.66,3.96,4.97
11.042,-0.36,-2.93,2.94,4.17
11.052,0.86,-3.12,1.34,3.50
11.062,1.77,-3.34,-0.33,3.79
11.072,2.28,-3.60,-1.49,4.51
11.082,2.18,-3.30,-2.64,4.75
11.092,1.71,-2.89,-3.53,4.87
11.102,1.27,-2.68,-3.12,4.30
11.112,0.86,-2.24,-1.96,3.10
11.122,0.69,-1.84,-0.68,2.08
11.132,0.60,-1.45,0.39,1.62
11.142,0.38,-0.70,1.29,1.52
11.152,-0.05,0.11,1.46,1.47
11.162,-0.47,0.30,0.84,1.01
11.172,-0.69,0.46,-0.24,0.86
11.182,-0.73,0.48,-1.39,1.64
11.192,-0.93,0.57,-2.22,2.47
11.202,-1.22,0.88,-2.72,3.11
11.212,-1.53,1.48,-3.19,3.83
11.222,-1.45,1.83,-3.45,4.17
11.232,-0.82,1.70,-3.41,3.90
11.242,-0.17,2.05,-2.20,3.01
11.252,0.16,3.23,1.39,3.52
11.262,0.45,5.20,5.03,7.25
11.272,0.54,7.18,4.24,8.36
11.282,0.32,7.45,0.94,7.52
11.292,-0.90,7.23,-1.79,7.51
11.302,-3.88,6.98,-1.44,8.12
11.312,-6.33,4.93,-0.02,8.02
11.322,-4.36,-1.80,0.18,4.72
11.332,-1.99,-6.05,0.30,6.37
11.342,-0.89,-5.77,0.45,5.86
11.352,-0.14,-4.87,-0.11,4.88
11.362,0.41,-5.01,-1.01,5.12
11.372,0.62,-5.39,-1.26,5.57
11.382,0.77,-5.74,-0.76,5.84
11.392,0.78,-5.66,-0.21,5.72
11.402,0.78,-5.30,-0.01,5.35
11.412,0.94,-4.58,0.07,4.67
11.422,1.03,-3.80,0.44,3.96
11.432,0.96,-3.23,0.89,3.49
11.442,0.63,-2.37,1.09,2.69
11.452,-0.36,-0.95,0.98,1.41
11.462,-1.94,0.44,0.85,2.16
11.472,-3.48,1.45,0.80,3.86
11.482,-4.24,2.58,0.13,4.97
11.492,-3.91,3.68,-1.00,5.46
11.502,-2.63,2.85,-1.29,4.09
11.512,-1.27,-0.49,-0.74,1.55
11.522,-0.95,-2.77,-0.55,2.98
11.532,-1.02,-4.16,-0.85,4.37
11.542,-0.66,-4.75,-1.29,4.96
11.552,0.10,-4.56,-1.57,4.83
11.562,0.64,-3.78,-1.30,4.04
11.572,0.64,-2.54,-0.37,2.65
11.582,0.30,-1.58,0.38,1.65
11.591,-0.01,-1.09,0.79,1.34
11.602,-0.29,-0.99,0.97,1.42
11.611,-0.77,-1.35,0.85,1.77
11.622,-1.27,-1.68,0.27,2.12
11.632,-1.47,-1.70,-0.44,2.29
11.642,-1.52,-1.42,-1.08,2.34
11.652,-1.47,-0.88,-1.56,2.32
11.661,-1.11,-0.20,-1.75,2.09
11.671,-0.38,0.37,-1.70,1.78
11.681,0.19,0.55,-1.50,1.60
11.691,0.20,0.25,-1.59,1.62
11.701,-0.12,-0.23,-1.91,1.93
11.711,-0.19,-0.56,-1.62,1.73
11.721,0.03,-0.68,-1.01,1.22
11.731,0.49,-0.54,-0.56,0.92
11.741,0.86,-0.22,-0.28,0.93
11.751,1.14,0.11,-0.18,1.16
11.761,1.33,0.56,-0.14,1.45
11.771,1.49,1.10,-0.33,1.88
11.781,1.61,1.55,-0.55,2.30
11.791,1.77,1.78,-0.83,2.64
11.801,2.00,1.68,-1.33,2.93
11.811,2.29,1.56,-1.85,3.33
11.821,2.57,1.62,-2.40,3.87
11.831,2.71,1.75,-3.15,4.51
11.841,2.58,2.12,-3.76,5.03
11.851,2.25,2.62,-3.87,5.19
11.861,1.72,3.39,-3.71,5.31
11.871,1.05,4.03,-3.36,5.35
11.881,0.16,4.80,-2.52,5.42
11.891,-1.15,5.81,-1.07,6.02
11.901,-2.29,6.94,-0.12,7.30
11.911,-2.08,8.69,-0.09,8.94
11.921,-0.83,9.93,0.39,9.97
11.931,-0.61,9.27,1.24,9.37
11.941,-1.10,7.15,0.69,7.27
11.951,-1.14,4.82,-0.08,4.95
11.961,-0.87,2.92,-0.69,3.13
11.971,-0.01,1.23,-1.58,2.01
11.981,1.16,-0.49,-1.76,2.16
11.991,2.25,-2.33,-1.49,3.56
12.001,3.38,-3.92,-1.27,5.33
12.011,4.25,-4.92,-0.82,6.56
12.021,4.92,-5.26,-0.56,7.22
12.031,5.41,-5.29,-0.46,7.58
12.041,5.70,-5.18,-0.11,7.70
12.051,5.75,-5.48,0.01,7.94
12.061,5.32,-6.04,0.13,8.05
12.071,4.86,-6.16,0.23,7.85
12.081,4.44,-5.83,0.22,7.33
12.091,3.81,-5.30,0.30,6.54
12.101,2.78,-4.50,0.63,5.33
12.110,1.51,-3.18,1.08,3.69
12.121,0.03,-1.19,1.36,1.80
12.131,-1.62,1.26,1.02,2.29
12.141,-3.22,3.72,-0.01,4.92
12.151,-4.54,6.06,-0.68,7.60
12.161,-5.13,7.70,0.03,9.26
12.171,-3.73,7.89,2.41,9.05
12.181,-2.05,5.43,5.41,7.94
12.191,-1.73,1.66,7.50,7.88
12.201,-2.39,-1.02,8.35,8.75
12.210,-2.49,-2.55,6.87,7.74
12.221,-2.09,-3.53,5.07,6.52
12.230,-1.28,-4.64,3.55,5.98
12.241,-0.63,-5.92,1.73,6.20
12.251,-0.79,-5.48,0.76,5.58
12.261,-0.78,-3.19,-0.09,3.29
12.270,-0.38,-1.79,-1.36,2.28
12.281,0.16,-0.99,-2.85,3.02
12.290,0.60,-0.40,-3.85,3.92
12.301,0.92,0.41,-3.63,3.77
12.310,1.44,0.94,-2.93,3.40
12.320,1.99,1.06,-1.85,2.92
12.330,2.01,1.44,-0.27,2.48
12.340,1.63,1.98,1.36,2.90
12.350,1.34,2.00,2.59,3.53
12.360,1.24,1.66,3.32,3.91
12.370,1.24,1.11,3.57,3.94
12.380,1.36,0.51,3.38,3.68
12.390,1.46,-0.02,2.75,3.11
12.400,1.20,0.12,1.93,2.28
12.410,0.57,0.90,1.03,1.48
12.420,0.27,0.85,0.15,0.90
12.430,0.34,0.26,-0.47,0.63
12.440,0.52,-0.54,-0.76,1.07
12.450,0.74,-1.42,-1.05,1.92
12.460,1.09,-2.13,-1.49,2.82
12.470,1.54,-2.51,-1.86,3.49
12.480,2.19,-2.88,-2.04,4.16
12.490,3.01,-3.42,-2.22,5.07
12.500,3.89,-3.85,-2.32,5.95
12.510,4.79,-3.57,-2.25,6.38
12.520,5.43,-2.68,-2.14,6.42
12.530,5.88,-3.04,-2.32,7.01
12.540,5.68,-3.98,-2.03,7.22
12.550,4.92,-4.80,-1.35,7.00
12.560,4.20,-5.26,-0.30,6.74
12.570,3.69,-5.25,0.41,6.43
12.580,3.70,-4.33,0.07,5.70
12.590,4.05,-0.88,-1.45,4.39
12.600,2.87,4.78,-0.72,5.62
12.610,0.01,11.21,5.10,12.31
12.620,-2.46,15.83,11.06,19.46
12.631,-5.60,17.66,11.76,21.94
12.641,-9.06,13.61,5.57,17.27
12.650,-10.06,6.56,1.98,12.17
12.660,-9.50,1.41,2.85,10.01
12.670,-8.18,-2.38,2.66,8.92
12.680,-7.48,-5.34,1.40,9.30
12.690,-7.56,-7.41,1.18,10.64
12.700,-7.68,-8.19,1.13,11.29
12.710,-7.18,-7.37,0.49,10.30
12.720,-5.75,-4.73,-1.07,7.52
12.730,-4.66,-1.70,-2.94,5.76
12.740,-4.18,1.03,-5.21,6.76
12.750,-3.57,3.19,-7.64,9.01
12.760,-2.55,4.69,-8.31,9.88
12.770,-0.98,5.42,-6.77,8.73
12.780,0.87,4.75,-4.05,6.30
12.790,2.75,2.44,-0.72,3.75
12.800,4.19,0.63,1.95,4.67
12.810,4.02,0.36,1.01,4.16
12.819,2.09,-0.01,-0.50,2.15
12.829,0.14,-1.31,-0.71,1.49
12.839,-0.33,-1.46,-1.06,1.83
12.850,-0.62,-1.48,-1.55,2.24
12.859,-1.45,-2.02,-1.91,3.14
12.869,-2.35,-2.32,-2.66,4.24
12.879,-2.89,-2.28,-3.70,5.22
12.890,-2.64,-2.16,-4.49,5.64
12.900,-1.62,-1.94,-4.65,5.29
12.909,-0.35,-1.58,-4.59,4.87
12.920,0.77,-1.16,-4.59,4.79
12.929,1.73,-0.67,-4.66,5.01
12.939,2.58,-0.25,-4.73,5.39
12.949,3.42,-0.08,-4.92,5.99
12.959,4.21,-0.24,-5.22,6.71
12.969,4.82,-0.76,-5.20,7.13
12.979,5.33,-1.46,-4.91,7.39
12.989,5.96,-1.95,-4.52,7.73
12.999,6.72,-2.06,-4.07,8.12
13.009,7.52,-1.96,-3.44,8.50
13.019,8.15,-1.79,-2.75,8.79
13.029,8.45,-1.56,-2.17,8.87
13.039,8.42,-1.10,-1.77,8.67
13.049,8.17,-0.32,-1.48,8.31
13.059,7.78,0.71,-1.34,7.93
13.069,7.15,1.53,-1.31,7.43
13.079,6.24,1.57,-1.44,6.59
13.089,5.12,0.99,-1.22,5.36
13.099,3.89,0.24,-0.45,3.92
13.109,2.60,-0.44,0.66,2.72
13.119,1.31,-0.90,1.72,2.35
13.129,0.03,-0.66,2.13,2.23
13.139,-1.53,0.27,1.79,2.37
13.149,-3.52,1.39,1.27,3.99
13.159,-5.80,2.19,0.50,6.22
13.169,-6.91,1.46,-1.33,7.19
13.179,-6.06,0.96,-4.73,7.75
13.189,-4.38,2.19,-4.27,6.50
13.199,-3.30,3.45,-1.11,4.90
13.209,-2.39,3.12,-1.41,4.17
13.219,-1.69,4.83,0.37,5.12
13.229,-0.04,7.11,2.79,7.64
13.239,3.35,9.07,6.40,11.60
13.249,7.64,10.29,10.45,16.54
13.259,10.00,9.92,11.75,18.35
13.269,8.25,8.75,8.99,15.02
13.279,6.13,5.77,5.39,10.00
13.289,5.37,1.32,1.87,5.83
13.299,3.97,-1.09,0.09,4.12
13.309,2.82,-2.45,-1.51,4.03
13.319,2.03,-2.21,-3.47,4.58
13.329,0.60,-0.99,-5.07,5.20
13.339,-0.64,-0.53,-5.43,5.49
13.349,-1.23,-1.45,-5.06,5.40
13.359,-1.77,-1.91,-4.44,5.14
13.369,-1.37,-2.34,-2.36,3.59
13.379,-0.30,-1.99,0.91,2.20
13.388,1.27,-1.36,3.71,4.15
13.399,2.76,-1.32,5.47,6.27
13.408,3.73,-1.53,6.21,7.40
13.419,3.79,-0.88,5.26,6.54
13.429,2.68,0.60,3.00,4.07
13.439,2.01,0.62,0.76,2.24
13.449,1.44,0.63,-1.34,2.06
13.459,0.70,0.94,-3.39,3.59
13.469,-0.11,1.32,-4.93,5.11
13.479,-0.50,1.50,-5.44,5.67
13.489,-0.26,1.60,-4.87,5.13
13.498,0.29,1.87,-3.81,4.26
13.508,0.69,2.73,-2.55,3.80
13.519,0.70,4.81,-0.46,4.88
13.528,0.32,7.85,1.58,8.01
13.539,-0.20,10.30,2.14,10.52
13.548,-0.38,10.81,1.78,10.96
13.560,-0.20,10.21,1.10,10.28
13.568,-1.07,8.64,0.54,8.72
13.579,-1.76,4.62,0.23,4.94
13.588,-1.53,1.67,0.60,2.34
13.598,-0.94,-0.29,1.39,1.70
13.608,-0.82,-2.29,1.30,2.75
13.618,-1.27,-3.74,0.91,4.05
13.628,-1.66,-4.58,0.76,4.94
13.638,-1.72,-5.46,0.57,5.75
13.648,-1.31,-6.27,0.54,6.43
13.658,-0.61,-7.02,0.66,7.07
13.668,0.03,-7.55,0.80,7.59
13.678,0.40,-7.48,0.99,7.56
13.688,0.43,-6.69,1.24,6.82
13.698,0.22,-5.61,1.44,5.79
13.708,0.06,-4.29,1.27,4.48
13.718,0.17,-2.52,0.52,2.58
13.728,0.57,0.17,-0.12,0.61
13.738,1.51,2.48,0.33,2.92
13.748,2.07,4.02,0.70,4.57
13.758,1.82,5.21,-0.01,5.52
13.768,1.08,6.39,-0.04,6.48
13.778,0.70,4.33,0.54,4.42
13.788,0.93,-0.37,0.80,1.28
13.798,0.47,-2.31,0.98,2.55
13.808,0.06,-2.69,1.22,2.95
13.818,-0.04,-2.46,1.10,2.69
13.828,-0.04,-2.01,0.58,2.09
13.838,-0.11,-1.73,0.27,1.76
13.848,-0.36,-1.62,0.13,1.67
13.858,-0.84,-1.53,0.07,1.75
13.868,-1.38,-1.21,0.21,1.85
13.878,-1.83,-0.77,0.62,2.09
13.888,-2.19,-0.64,0.72,2.40
13.898,-2.21,-0.47,0.41,2.30
13.908,-1.90,-0.32,-0.08,1.93
13.918,-1.38,-0.71,-0.77,1.73
13.928,-0.82,-1.36,-1.27,2.03
13.938,-0.51,-1.84,-1.55,2.45
13.948,-0.45,-2.18,-1.85,2.89
13.958,-0.48,-2.24,-2.25,3.21
13.968,-0.43,-2.12,-2.45,3.27
13.978,-0.09,-1.89,-2.45,3.10
13.988,0.42,-1.47,-2.42,2.86
13.998,0.93,-0.88,-2.13,2.49
14.008,1.39,-0.41,-1.64,2.19
14.018,1.84,-0.03,-1.40,2.31
14.028,2.18,0.35,-1.17,2.50
14.038,2.54,0.89,-0.99,2.87
14.048,2.79,1.44,-0.84,3.25
14.058,2.87,1.95,-0.74,3.54
14.068,2.77,2.34,-0.84,3.72
14.078,2.48,2.96,-1.06,4.01
14.088,2.47,3.94,-1.21,4.80
14.098,2.70,4.77,-1.53,5.69
14.108,2.76,5.15,-1.79,6.11
14.118,2.49,5.07,-1.55,5.86
14.127,2.07,4.81,-0.65,5.28
14.138,1.64,4.61,0.48,4.92
14.147,1.54,4.94,1.49,5.39
14.157,1.76,5.71,2.78,6.59
14.167,1.64,6.87,3.49,7.88
14.177,1.51,7.67,3.63,8.62
14.187,1.63,7.09,3.35,8.01
14.197,1.52,5.40,2.41,6.10
14.207,1.11,3.55,1.20,3.91
14.217,0.60,2.21,0.20,2.30
14.227,0.19,1.09,-0.71,1.31
14.237,0.28,-0.45,-1.59,1.68
14.247,1.27,-2.65,-2.62,3.94
14.257,2.29,-5.60,-3.94,7.22
14.267,2.33,-7.05,-3.08,8.03
14.277,2.05,-7.79,-1.72,8.23
14.287,1.38,-8.03,-1.50,8.28
14.297,0.58,-7.21,-1.61,7.41
14.307,-0.12,-5.18,-1.78,5.47
14.317,-0.79,-3.32,-2.07,4.00
14.327,-1.81,-1.47,-1.58,2.82
14.337,-2.69,0.95,-0.98,3.02
14.347,-3.06,2.59,-0.26,4.02
14.357,-2.30,3.23,1.39,4.20
14.367,-0.64,3.10,4.10,5.18
14.377,-0.07,2.88,6.61,7.21
14.387,0.14,2.47,7.46,7.86
14.397,0.79,1.20,7.12,7.27
14.407,1.16,-0.67,5.85,6.00
14.417,1.57,-2.29,4.46,5.26
14.427,2.39,-3.73,3.15,5.43
14.437,3.15,-4.70,1.75,5.93
14.447,3.64,-4.20,0.33,5.57
14.457,3.65,-2.91,-0.92,4.75
14.467,3.32,-2.27,-2.26,4.61
14.477,2.76,-1.27,-3.33,4.50
14.487,2.25,-0.92,-3.82,4.53
14.497,1.78,-1.52,-3.43,4.15
14.507,1.23,-1.90,-2.01,3.02
14.517,0.66,-1.71,0.02,1.83
14.527,0.06,-0.99,1.96,2.19
14.537,-0.16,-0.42,3.22,3.25
14.547,-0.26,0.47,3.50,3.54
14.557,-0.37,1.14,2.65,2.90
14.567,-0.53,1.08,1.06,1.60
14.577,-0.84,1.27,-0.59,1.63
14.587,-1.16,1.51,-2.00,2.76
14.597,-1.32,1.29,-3.20,3.70
14.607,-1.48,1.02,-3.41,3.85
14.617,-1.80,0.95,-2.82,3.48
14.627,-2.07,0.89,-2.10,3.08
14.637,-1.97,0.87,-1.52,2.64
14.647,-1.63,1.08,-1.11,2.25
14.657,-1.20,1.72,-0.57,2.17
14.667,-0.93,2.93,0.71,3.15
14.677,-0.89,5.00,2.00,5.46
14.687,-1.07,7.83,1.49,8.05
14.697,-1.14,10.02,0.10,10.09
14.707,-1.58,11.09,-0.59,11.21
14.718,-3.95,10.49,0.12,11.21
14.727,-5.61,6.74,0.63,8.80
14.737,-3.85,1.38,0.49,4.12
14.747,-1.88,-0.80,0.84,2.21
14.757,-1.09,-2.15,0.87,2.56
14.767,-0.58,-2.75,0.31,2.83
14.776,0.03,-2.99,0.01,2.99
14.787,0.65,-3.64,-0.36,3.72
14.796,1.18,-4.62,-0.65,4.81
14.806,1.56,-5.51,-0.72,5.77
14.817,1.68,-6.05,-0.56,6.31
14.826,1.51,-6.21,-0.14,6.39
14.837,1.21,-6.22,0.16,6.34
14.846,0.67,-5.58,0.46,5.64
14.856,0.13,-4.56,0.67,4.61
14.866,-0.37,-3.19,0.57,3.26
14.876,-0.61,-1.78,-0.03,1.88
14.886,-0.68,-0.31,-0.68,1.01
14.896,-0.98,1.58,-0.63,1.96
14.906,-1.46,3.43,0.10,3.73
14.916,-1.74,4.86,0.22,5.17
14.926,-1.56,4.46,-0.34,4.74
14.936,-0.87,0.91,-0.53,1.37
14.946,-0.43,-1.24,-0.55,1.42
14.956,0.12,-2.43,-0.41,2.47
14.966,0.66,-3.24,-0.32,3.32
14.976,0.92,-3.61,-0.41,3.74
14.986,0.72,-3.46,-0.51,3.57
14.996,0.17,-2.97,-0.48,3.01
15.006,-0.20,-2.27,-0.26,2.29
15.016,-0.55,-2.07,-0.07,2.15
15.026,-0.72,-1.76,0.11,1.90
15.036,-0.94,-1.62,-0.02,1.87
15.046,-1.14,-1.72,-0.44,2.10
15.056,-1.30,-1.84,-0.84,2.41
15.066,-1.39,-1.75,-1.19,2.53
15.076,-1.41,-1.40,-1.41,2.43
15.086,-1.32,-0.81,-1.46,2.13
15.096,-1.21,-0.17,-1.60,2.02
15.106,-1.02,0.26,-1.49,1.82
15.116,-0.78,0.53,-1.46,1.74
15.126,-0.56,0.56,-1.67,1.85
15.136,-0.22,0.47,-1.85,1.92
15.146,0.52,0.58,-2.02,2.16
15.156,1.25,1.37,-2.10,2.80
15.166,1.88,2.59,-1.98,3.76
15.176,2.43,3.58,-1.88,4.71
15.186,2.88,4.30,-1.76,5.47
15.196,3.11,4.79,-1.47,5.90
15.206,3.18,4.98,-1.07,6.01
15.216,3.27,5.20,-0.81,6.20
15.226,3.11,5.60,-0.58,6.43
15.236,2.60,5.94,0.18,6.49
15.246,1.78,6.21,1.31,6.59
15.256,1.05,6.82,2.44,7.32
15.266,1.77,7.47,2.76,8.16
15.276,2.92,7.68,2.45,8.57
15.285,3.48,6.63,2.29,7.82
15.296,3.78,4.68,2.13,6.39
15.305,3.66,2.87,1.44,4.87
15.316,3.07,1.17,0.27,3.29
15.326,2.22,-0.46,-0.76,2.40
15.335,1.29,-1.82,-1.45,2.67
15.345,0.41,-3.02,-2.05,3.67
15.356,-0.42,-4.16,-2.49,4.87
15.366,-0.91,-5.28,-2.79,6.04
15.375,-0.76,-6.95,-3.15,7.67
15.386,-0.70,-8.01,-3.11,8.62
15.395,-1.06,-8.14,-2.11,8.47
15.406,-1.70,-7.67,-2.60,8.28
15.415,-2.20,-6.22,-2.18,6.95
15.425,-2.55,-4.16,-1.22,5.03
15.435,-2.80,-1.85,-0.77,3.45
15.445,-3.06,0.85,-0.11,3.18
15.455,-3.18,3.28,0.74,4.63
15.465,-2.64,4.88,1.88,5.85
15.475,-1.78,5.17,4.52,7.10
15.486,-0.97,4.40,7.30,8.58
15.495,-0.09,4.63,8.47,9.66
15.505,1.71,4.37,8.19,9.44
15.515,2.47,1.71,6.47,7.13
15.525,2.11,-0.24,4.37,4.86
15.535,1.76,-1.08,2.52,3.26
15.545,1.98,-1.92,1.18,3.00
15.555,1.84,-2.15,0.18,2.84
15.565,1.36,-1.45,-1.47,2.47
15.575,1.16,-1.03,-3.06,3.43
15.585,1.14,-0.66,-4.23,4.43
15.596,1.10,-0.00,-4.56,4.70
15.605,0.86,0.16,-3.93,4.03
15.615,0.55,0.23,-2.70,2.76
15.625,0.44,-0.06,-0.84,0.95
15.635,0.23,-0.38,1.25,1.33
15.645,0.13,-0.54,2.52,2.58
15.655,0.40,-0.48,2.32,2.40
15.665,0.66,-0.20,1.00,1.21
15.675,0.64,-0.38,-0.47,0.88
15.685,0.81,-0.71,-1.95,2.22
15.695,0.94,-0.66,-3.26,3.46
15.705,0.98,-0.80,-4.39,4.57
15.715,0.78,-1.15,-5.11,5.29
15.725,0.58,-1.71,-5.51,5.80
15.735,0.74,-1.99,-5.46,5.86
15.745,1.04,-1.98,-4.59,5.11
15.755,1.32,-1.29,-2.52,3.13
15.765,1.43,0.44,1.19,1.91
15.775,1.46,3.18,4.08,5.38
15.785,1.05,6.42,4.21,7.75
15.795,-0.20,9.10,2.66,9.48
15.805,-3.28,9.89,1.20,10.49
15.816,-6.65,9.51,1.13,11.66
15.825,-7.12,6.95,0.48,9.96
15.835,-3.75,-0.37,0.27,3.77
15.845,-2.06,-4.77,0.70,5.25
15.855,-2.37,-6.44,0.79,6.91
15.865,-2.81,-6.77,0.94,7.39
15.875,-2.70,-6.35,1.06,6.98
15.885,-1.82,-6.09,0.51,6.38
15.895,-0.64,-6.10,0.01,6.14
15.905,0.26,-5.80,0.02,5.80
15.915,0.78,-5.25,0.22,5.31
15.925,1.06,-4.72,0.38,4.85
15.935,1.13,-3.93,0.50,4.12
15.945,0.92,-2.44,0.76,2.72
15.955,0.68,-0.40,1.06,1.32
15.965,0.36,1.48,1.19,1.93
15.974,-0.48,2.68,1.56,3.14
15.985,-1.75,3.65,1.98,4.51
15.995,-2.91,5.03,1.82,6.09
16.005,-3.40,6.75,1.21,7.65
16.015,-2.88,5.66,0.61,6.38
16.025,-1.52,-0.08,0.66,1.66
16.035,-0.42,-2.67,0.99,2.87
16.044,0.23,-3.47,1.03,3.63
16.054,0.51,-3.95,0.74,4.05
16.064,0.53,-3.85,0.38,3.90
16.074,0.27,-3.32,0.08,3.33
16.084,-0.18,-2.48,-0.28,2.50
16.094,-0.68,-1.71,-0.67,1.96
16.104,-1.22,-1.30,-0.92,2.01
16.114,-1.56,-0.51,-1.02,1.93
16.124,-1.60,0.32,-1.10,1.96
16.134,-1.26,0.87,-1.12,1.90
16.144,-0.72,0.81,-1.09,1.54
16.154,-0.15,0.55,-0.92,1.08
16.164,0.26,0.17,-0.92,0.97
16.174,0.55,-0.15,-1.23,1.36
16.184,1.10,-0.47,-1.62,2.01
16.194,1.67,-0.46,-2.22,2.81
16.204,2.07,-0.13,-2.77,3.46
16.214,2.30,0.25,-3.02,3.80
16.224,2.41,0.57,-3.09,3.96
16.234,2.44,0.93,-2.99,3.97
16.244,2.43,1.38,-2.83,3.98
16.254,2.37,2.16,-2.44,4.03
16.264,2.29,2.89,-2.18,4.28
16.274,2.19,3.68,-1.97,4.71
16.284,2.01,4.40,-1.75,5.15
16.294,1.61,5.24,-1.18,5.61
16.304,1.02,5.86,-0.45,5.97
16.314,0.27,6.05,0.38,6.07
16.324,0.22,5.25,1.01,5.35
16.334,1.26,4.67,1.51,5.07
16.344,2.42,5.02,1.70,5.83
16.354,2.64,5.41,1.81,6.29
16.364,1.97,5.55,2.10,6.25
16.374,0.93,5.02,2.05,5.50
16.384,0.36,3.01,1.67,3.47
16.394,1.44,-0.40,0.12,1.50
16.404,1.78,-3.89,-1.18,4.44
16.414,1.27,-6.62,-0.21,6.74
16.424,0.75,-8.84,-0.18,8.87
16.434,-0.17,-9.08,-0.61,9.10
16.444,-1.01,-6.99,-0.75,7.10
16.454,-0.56,-5.00,-0.87,5.11
16.464,0.22,-3.44,-0.77,3.53
16.474,0.41,-1.18,-0.06,1.25
16.484,0.10,1.34,0.81,1.57
16.494,-0.24,3.25,1.29,3.51
16.504,-0.81,4.50,1.41,4.79
16.514,-0.99,4.23,1.76,4.69
16.524,-0.67,2.51,2.96,3.94
16.534,-0.50,0.95,4.02,4.16
16.544,-0.54,0.01,4.58,4.62
16.554,-0.48,-0.95,4.93,5.04
16.564,-0.22,-2.02,4.74,5.16
16.574,0.36,-2.66,3.87,4.71
16.584,1.33,-2.73,2.49,3.93
16.594,2.39,-2.50,1.09,3.63
16.604,3.15,-2.59,-0.49,4.11
16.614,3.07,-2.26,-2.28,4.45
16.623,2.36,-1.65,-3.06,4.20
16.634,1.69,-1.64,-2.19,3.21
16.643,1.18,-1.62,-0.96,2.22
16.654,0.77,-1.81,0.10,1.97
16.663,0.00,-1.71,1.34,2.17
16.674,-0.64,-1.44,2.20,2.70
16.684,-0.89,-1.12,2.29,2.70
16.693,-1.01,-0.50,1.89,2.20
16.703,-1.14,0.37,0.89,1.49
16.713,-1.28,0.58,-0.36,1.45
16.723,-1.58,0.71,-1.47,2.27
16.734,-1.68,1.64,-2.46,3.40
16.743,-1.58,2.40,-2.86,4.06
16.753,-1.40,3.09,-2.78,4.39
16.763,-0.81,3.40,-2.71,4.43
16.773,0.10,3.38,-2.65,4.30
16.783,0.88,3.45,-2.28,4.23
16.793,1.36,3.27,-1.63,3.90
16.803,1.51,3.68,-0.26,3.98
16.813,1.24,5.33,0.78,5.53
16.823,0.98,7.33,0.17,7.40
16.833,0.55,8.61,-0.44,8.63
16.843,-1.17,8.64,-0.70,8.75
16.853,-4.60,7.21,-0.54,8.57
16.863,-6.80,3.68,-0.21,7.73
16.873,-5.83,-0.28,-0.04,5.84
16.883,-4.06,-1.81,0.62,4.49
16.893,-2.82,-2.96,0.76,4.16
16.903,-1.94,-4.10,0.39,4.55
16.913,-1.32,-4.41,0.29,4.61
16.923,-0.78,-4.84,0.33,4.91
16.933,0.05,-5.50,0.33,5.51
16.943,0.83,-5.75,0.35,5.82
16.953,1.40,-5.64,0.37,5.83
16.963,1.82,-5.10,0.43,5.43
16.973,2.08,-4.34,0.63,4.85
16.983,2.26,-3.82,0.89,4.53
16.993,2.14,-3.25,1.25,4.08
17.003,1.77,-2.86,1.15,3.56
17.013,1.12,-2.32,0.36,2.60
17.023,0.17,-1.40,-0.34,1.45
17.033,-0.95,-0.15,-0.28,1.00
17.043,-2.07,1.28,0.23,2.45
17.053,-2.76,2.68,0.49,3.88
17.063,-2.41,3.60,-0.15,4.33
17.073,-1.15,1.32,-0.59,1.85
17.083,-0.53,-1.58,-0.65,1.79
17.093,-0.28,-3.14,-0.40,3.18
17.103,0.01,-4.05,-0.03,4.05
17.113,0.12,-4.47,0.09,4.48
17.123,0.08,-4.28,-0.21,4.29
17.133,-0.04,-3.35,-0.41,3.37
17.143,-0.23,-2.45,-0.40,2.49
17.153,-0.46,-1.68,-0.42,1.79
17.163,-0.63,-0.45,-0.54,0.94
17.173,-0.90,1.04,-0.47,1.45
17.183,-1.28,2.20,-0.34,2.57
17.193,-1.54,2.37,-0.41,2.85
17.203,-1.51,2.47,-0.48,2.93
17.213,-1.30,2.64,-0.60,3.00
17.223,-0.92,2.57,-1.04,2.92
17.233,-0.37,1.92,-1.43,2.43
17.242,0.12,0.87,-1.63,1.85
17.253,0.54,0.21,-1.79,1.88
17.262,1.01,-0.05,-2.12,2.35
17.273,1.49,0.11,-2.36,2.79
17.282,1.75,0.47,-2.28,2.92
17.292,1.91,0.73,-1.87,2.77
17.302,1.93,0.89,-1.41,2.55
17.312,1.88,1.34,-1.20,2.60
17.322,1.75,2.02,-1.33,2.98
17.332,1.60,2.81,-1.66,3.64
17.342,1.35,3.77,-1.62,4.32
17.352,1.17,4.78,-1.52,5.15
17.362,1.08,5.59,-1.34,5.85
17.372,0.51,6.06,-0.41,6.10
17.382,-0.37,6.54,1.04,6.64
17.392,-0.17,6.95,2.55,7.40
17.402,1.16,6.70,3.84,7.81
17.412,1.23,5.60,4.44,7.25
17.422,0.39,4.70,4.51,6.52
17.432,-0.40,3.99,3.92,5.61
17.442,-1.12,2.78,2.94,4.20
17.452,-1.54,1.01,1.47,2.36
17.462,-1.50,-1.06,-0.12,1.84
17.472,-1.21,-2.77,-1.14,3.23
17.482,-0.68,-4.09,-2.00,4.61
17.492,0.81,-5.73,-2.69,6.38
17.502,3.10,-7.13,-3.03,8.35
17.512,4.54,-7.96,-2.21,9.42
17.522,4.37,-8.49,-2.21,9.80
17.532,3.74,-7.53,-1.47,8.53
17.542,3.62,-6.50,-1.33,7.56
17.552,4.05,-5.03,-1.65,6.67
17.562,4.57,-4.08,-2.65,6.68
17.572,4.21,-3.02,-2.84,5.91
17.582,2.71,-2.26,-1.02,3.67
17.592,1.36,-1.25,0.84,2.03
17.602,-0.14,0.37,2.08,2.12
17.612,-1.45,2.05,2.73,3.70
17.622,-2.83,4.56,3.75,6.55
17.632,-4.43,6.51,4.92,9.28
17.642,-4.01,6.53,6.43,10.01
17.652,-2.41,4.65,7.31,8.99
17.662,-1.68,1.47,6.31,6.69
17.672,-1.57,-0.54,4.39,4.69
17.682,-1.49,-1.98,2.17,3.30
17.692,-1.13,-3.36,0.41,3.57
17.702,-0.52,-4.19,-1.08,4.36
17.712,0.00,-4.14,-2.84,5.02
17.722,0.52,-3.10,-4.39,5.40
17.732,0.99,-1.61,-5.20,5.54
17.742,1.24,-0.39,-5.02,5.18
17.752,1.29,0.45,-3.79,4.03
17.762,1.52,0.18,-1.34,2.03
17.772,1.76,0.17,1.58,2.37
17.782,1.93,0.78,3.98,4.49
17.792,1.98,1.82,4.89,5.58
17.802,1.91,1.99,4.13,4.97
17.812,1.53,1.03,2.44,3.05
17.822,0.92,-0.21,0.75,1.20
17.832,0.32,-0.81,-0.65,1.09
17.842,0.12,-1.33,-1.74,2.19
17.852,0.16,-2.07,-2.58,3.31
17.862,0.06,-2.41,-3.06,3.89
17.872,-0.31,-2.01,-3.30,3.88
17.882,-0.42,-1.78,-3.11,3.61
17.892,-0.29,-1.82,-2.47,3.09
17.902,-0.09,-1.72,-1.70,2.43
17.911,0.22,-1.36,-1.07,1.75
17.922,0.60,-0.44,-0.23,0.78
17.932,0.94,1.34,1.04,1.94
17.942,1.06,4.23,2.26,4.91
17.951,0.93,8.02,2.24,8.38
17.961,1.52,11.63,0.84,11.76
17.972,2.70,13.19,-0.61,13.48
17.983,1.88,11.94,-0.33,12.09
17.991,-0.48,7.51,0.49,7.54
18.002,-1.86,3.77,-0.18,4.21
18.011,-2.63,1.88,-0.48,3.27
18.021,-3.33,1.12,-0.06,3.51
18.031,-3.37,0.72,0.12,3.45
18.041,-1.88,0.13,0.30,1.91
18.051,-0.83,-0.45,0.18,0.96
18.061,-0.37,-1.30,-0.68,1.52
18.071,-0.09,-1.75,-0.18,1.76
18.081,-0.06,-2.01,0.41,2.05
18.091,-0.24,-2.73,1.16,2.98
18.101,-0.45,-3.56,1.50,3.89
18.111,-0.44,-4.37,1.64,4.68
18.121,-0.27,-4.96,1.64,5.23
18.131,-0.06,-5.32,1.49,5.52
18.141,0.03,-5.28,1.05,5.39
18.151,0.12,-4.71,0.44,4.73
18.161,0.30,-3.77,-0.27,3.79
18.171,0.59,-2.87,-0.89,3.06
18.181,0.86,-2.24,-1.21,2.69
18.191,0.92,-1.47,-1.08,2.05
18.201,0.74,-0.55,-0.61,1.10
18.211,0.48,0.72,0.05,0.87
18.221,0.05,1.87,0.61,1.97
18.231,-0.17,2.49,0.50,2.54
18.241,-0.38,2.78,0.13,2.81
18.251,-0.51,2.01,-0.05,2.08
18.261,-0.65,0.43,-0.09,0.78
18.271,-0.68,-0.67,0.09,0.96
18.281,-0.45,-1.75,0.27,1.82
18.291,-0.27,-2.60,0.26,2.63
18.301,-0.30,-3.05,0.09,3.06
18.311,-0.34,-3.15,-0.08,3.17
18.321,-0.22,-2.92,-0.16,2.93
18.331,-0.03,-2.50,-0.30,2.52
18.341,0.26,-2.07,-0.51,2.15
18.351,0.57,-1.80,-0.78,2.04
18.361,0.85,-1.58,-0.79,1.96
18.371,0.93,-1.27,-0.87,1.80
18.381,0.89,-1.03,-1.03,1.71
18.391,0.77,-0.74,-1.39,1.76
18.401,0.51,-0.10,-1.65,1.73
18.411,0.20,0.45,-1.85,1.92
18.421,-0.30,0.75,-1.97,2.13
18.431,-0.87,0.35,-2.21,2.40
18.441,-1.23,-0.67,-2.30,2.70
18.451,-1.20,-0.91,-2.24,2.70
18.461,-0.96,-0.21,-2.34,2.54
18.471,-1.06,0.33,-2.02,2.30
18.481,-1.20,0.53,-1.30,1.84
18.490,-1.08,0.56,-0.88,1.50
18.501,-0.74,0.28,-0.75,1.09
18.510,-0.60,0.25,-0.71,0.96
18.521,-0.66,0.81,-0.69,1.26
18.530,-0.68,0.86,-0.72,1.31
18.541,-0.72,0.76,-0.73,1.27
18.551,-0.66,0.84,-0.58,1.22
18.560,-0.60,1.09,-0.35,1.29
18.570,-0.59,1.80,-0.28,1.91
18.580,-0.50,2.28,-0.41,2.37
18.590,-0.42,2.74,-0.43,2.80
18.600,-0.44,3.39,-0.19,3.42
18.610,-0.45,3.82,0.38,3.87
18.620,-0.42,5.66,1.04,5.77
18.630,0.14,7.73,1.70,7.91
18.641,1.34,8.71,2.29,9.11
18.650,2.44,7.66,2.64,8.46
18.660,2.53,6.75,2.81,7.74
18.670,2.02,5.00,2.48,5.93
18.680,1.47,2.94,1.48,3.61
18.690,1.09,0.91,0.65,1.56
18.700,0.47,-0.54,0.39,0.81
18.710,-0.12,-1.51,0.10,1.52
18.720,-0.51,-2.09,-0.46,2.20
18.730,-0.62,-2.26,-1.28,2.67
18.740,-0.19,-2.50,-2.14,3.30
18.750,0.59,-3.18,-2.75,4.25
18.760,1.57,-5.09,-3.59,6.43
18.770,2.77,-7.05,-4.17,8.64
18.780,2.83,-6.46,-2.65,7.53
18.790,1.42,-3.69,-1.17,4.12
18.800,0.35,-2.31,0.52,2.39
18.810,-0.55,-1.84,1.21,2.27
18.820,-0.19,-2.23,0.88,2.41
18.830,-0.75,0.73,0.80,1.31
18.840,-1.84,4.40,1.28,4.94
18.850,-2.50,5.33,2.67,6.47
18.860,-2.39,4.49,4.06,6.51
18.870,-1.98,3.15,5.04,6.26
18.880,-1.62,1.84,5.14,5.69
18.890,-1.24,1.06,4.83,5.10
18.900,-0.65,0.65,4.18,4.28
18.910,-0.47,0.93,3.32,3.48
18.920,-0.34,0.94,2.01,2.25
18.930,0.15,0.02,0.78,0.79
18.940,0.71,-1.18,-0.23,1.40
18.950,1.37,-2.43,-0.92,2.94
18.960,1.93,-3.18,-1.82,4.15
18.970,2.03,-3.15,-2.42,4.46
18.980,1.72,-1.92,-2.25,3.42
18.990,1.31,-1.10,-2.22,2.81
19.000,1.05,-0.62,-1.89,2.25
19.010,0.81,-0.12,-0.60,1.02
19.020,0.68,-0.02,1.26,1.43
19.030,1.00,-0.58,2.77,3.00
19.040,1.47,-1.62,3.47,4.10
19.050,1.13,-1.38,3.47,3.90
19.059,0.18,-1.05,2.28,2.51
19.070,-0.45,-1.22,0.50,1.40
19.080,-0.60,-1.64,-1.19,2.11
19.090,-0.40,-2.65,-2.08,3.39
19.100,-0.40,-3.19,-2.05,3.81
19.110,-0.55,-3.41,-1.71,3.85
19.120,-0.66,-3.36,-1.42,3.70
19.130,-0.71,-3.07,-0.96,3.29
19.140,-0.71,-2.45,-0.61,2.62
19.150,-0.64,-1.56,-0.53,1.77
19.160,-0.32,-0.52,-0.47,0.77
19.170,0.33,0.63,-0.34,0.79
19.180,1.05,1.77,-0.53,2.12
19.190,1.47,2.56,-0.68,3.03
19.199,1.67,3.44,-0.11,3.83
19.209,1.87,4.97,0.85,5.38
19.219,2.22,7.01,1.33,7.47
19.230,2.66,8.69,0.57,9.11
19.240,2.63,9.79,-0.66,10.16
19.250,0.85,9.80,0.04,9.84
19.259,-2.40,7.54,0.49,7.93
19.269,-4.25,4.01,1.25,5.98
19.279,-4.12,2.09,0.69,4.67
19.289,-3.35,0.99,0.11,3.49
19.299,-2.29,0.46,0.17,2.34
19.309,-0.91,0.43,0.22,1.03
19.319,0.00,0.43,0.98,1.07
19.329,0.52,0.13,1.09,1.22
19.339,1.01,-0.85,0.87,1.58
19.349,1.25,-1.98,0.46,2.39
19.359,1.19,-3.04,0.26,3.28
19.369,0.81,-3.91,0.39,4.01
19.379,0.30,-4.43,0.46,4.46
19.389,-0.19,-4.84,0.41,4.86
19.399,-0.51,-5.11,0.30,5.14
19.409,-0.72,-4.66,-0.10,4.72
19.419,-1.18,-4.65,0.20,4.80
19.429,-1.38,-4.44,0.03,4.65
19.439,-0.95,-4.03,-0.25,4.15
19.449,-0.29,-3.34,-0.18,3.36
19.459,-0.01,-2.43,0.21,2.44
19.469,0.22,-1.12,-0.11,1.15
19.479,0.44,0.40,-0.92,1.09
19.489,0.62,1.37,-1.17,1.91
19.499,1.03,0.51,-0.83,1.42
19.509,1.51,-2.06,-0.56,2.62
19.519,1.33,-3.60,-0.77,3.91
19.529,0.88,-3.58,-0.94,3.80
19.539,0.64,-2.98,-0.79,3.15
19.549,0.39,-2.20,-0.17,2.24
19.559,-0.19,-1.38,0.43,1.46
19.569,-0.91,-0.77,0.67,1.36
19.579,-1.31,-0.15,0.58,1.44
19.589,-1.56,0.82,0.24,1.78
19.599,-1.67,1.49,0.85,2.39
19.609,-1.22,1.32,0.59,1.89
19.619,-0.59,0.55,-0.54,0.97
19.629,-0.39,-0.09,-1.13,1.19
19.639,-0.58,-0.17,-1.07,1.23
19.649,-0.70,-0.09,-1.28,1.46
19.659,-0.76,0.28,-1.81,1.99
19.669,-0.69,0.45,-1.97,2.13
19.678,-0.23,-0.31,-1.99,2.03
19.689,0.10,-1.06,-1.71,2.01
19.699,0.30,-1.29,-1.65,2.11
19.709,0.65,-0.95,-1.80,2.14
19.719,1.22,-0.47,-1.74,2.18
19.729,1.62,0.25,-1.28,2.08
19.739,1.58,0.81,-0.85,1.97
19.749,1.65,0.33,-0.58,1.78
19.759,1.67,-0.19,-0.49,1.75
19.769,1.57,-0.50,-0.44,1.71
19.778,1.49,-0.68,-0.66,1.76
19.789,1.19,-0.83,-0.85,1.68
19.798,0.70,-0.99,-0.93,1.53
19.809,0.42,-0.70,-1.07,1.35
19.819,0.53,-0.68,-1.06,1.37
19.828,0.36,0.19,-1.24,1.30
19.839,0.14,1.57,-1.60,2.24
19.849,-0.07,2.33,-1.76,2.92
19.858,-0.25,3.05,-1.76,3.53
19.868,-0.52,3.46,-1.46,3.79
19.878,-0.80,3.86,-0.95,4.06
19.888,-1.07,4.05,-0.55,4.23
19.898,-1.57,4.66,0.16,4.92
19.908,-1.96,5.45,0.48,5.82
19.918,-2.12,7.07,1.21,7.48
19.928,-2.01,8.79,2.08,9.26
19.938,-1.42,9.06,2.85,9.60
19.948,-0.66,7.23,3.21,7.94
19.958,-0.80,5.62,2.52,6.21
19.968,-1.41,4.10,1.61,4.63
19.978,-1.81,2.45,0.77,3.14
19.988,-2.25,0.87,0.37,2.44
19.998,-2.17,-0.91,0.22,2.36
20.008,-1.45,-2.70,0.33,3.08
20.018,-0.15,-4.24,0.52,4.27
20.028,1.18,-5.33,0.20,5.46
20.038,2.34,-4.66,-0.55,5.25
20.048,3.22,-3.86,-0.64,5.07
20.058,3.79,-3.63,0.01,5.25
20.068,4.49,-3.52,-0.25,5.71
20.078,3.91,-2.61,-0.45,4.72
20.088,3.21,-0.72,-0.97,3.43
20.098,2.76,0.80,-1.02,3.05
20.108,2.20,2.19,-0.15,3.11
20.118,1.55,1.72,0.05,2.32
20.128,0.71,1.17,0.90,1.64
20.138,-0.64,2.47,1.57,2.99
20.148,-1.96,2.75,2.96,4.49
20.158,-2.51,1.19,4.46,5.25
20.168,-2.78,-0.51,5.16,5.88
20.178,-2.58,-1.31,4.18,5.08
20.188,-2.03,-1.05,2.86,3.66
20.198,-1.01,-0.85,2.14,2.51
20.208,0.13,-0.77,1.54,1.73
20.218,0.97,-0.86,1.07,1.68
20.228,1.36,-1.53,0.45,2.10
20.238,1.41,-2.43,-0.95,2.97
20.248,1.16,-2.58,-2.60,3.84
20.258,0.93,-2.35,-2.77,3.75
20.268,0.55,-1.73,-2.29,2.92
20.278,0.53,-1.53,-0.47,1.68
20.288,1.10,-1.65,1.53,2.50
20.298,1.59,-1.52,2.62,3.42
20.308,1.36,-0.64,2.71,3.10
20.318,0.94,-0.24,1.95,2.17
20.328,0.63,-0.37,1.06,1.29
20.338,0.35,-0.90,-0.01,0.97
20.348,-0.18,-1.18,-1.01,1.56
20.357,-0.49,-1.47,-1.69,2.29
20.368,-0.32,-1.74,-1.70,2.46
20.377,0.06,-1.75,-1.12,2.08
20.388,0.26,-1.48,-0.62,1.63
20.397,0.38,-1.03,-0.46,1.19
20.408,0.60,-0.41,-0.76,1.05
20.417,1.26,0.15,-0.85,1.53
20.427,1.63,1.62,0.07,2.30
20.437,2.70,3.07,1.02,4.21
20.448,3.34,4.60,0.68,5.73
20.457,3.68,5.25,-0.88,6.48
20.468,2.47,6.27,-1.38,6.88
20.477,-0.16,6.48,-1.39,6.63
20.488,-3.43,4.74,-1.16,5.97
20.497,-5.29,2.15,-0.72,5.75
20.507,-5.17,1.58,-0.41,5.42
20.517,-4.51,2.15,0.12,4.99
20.527,-3.13,1.65,0.55,3.58
20.537,-1.47,1.00,0.61,1.88
20.547,-0.96,1.02,0.85,1.64
20.557,-0.17,0.32,0.86,0.94
20.567,0.36,-0.23,1.01,1.10
20.577,0.95,-0.70,1.12,1.63
20.587,1.30,-1.28,1.17,2.17
20.597,1.22,-2.22,1.34,2.87
20.607,0.74,-2.91,1.50,3.35
20.617,0.17,-3.14,1.36,3.43
20.627,-0.08,-3.36,0.84,3.46
20.637,-0.29,-2.99,0.20,3.02
20.647,-0.46,-2.54,-0.24,2.59
20.657,-0.44,-3.00,-0.75,3.12
20.667,-0.66,-3.21,-1.12,3.46
20.677,-0.92,-3.10,-1.31,3.49
20.687,-1.21,-3.00,-1.41,3.53
20.697,-1.22,-2.81,-1.50,3.41
20.707,-0.87,-2.20,-1.29,2.69
20.717,-0.64,-1.83,-0.85,2.12
20.727,-0.33,-1.57,-0.69,1.75
20.737,0.21,-1.60,-0.66,1.74
20.747,0.56,-1.96,-0.81,2.19
20.757,0.47,-2.36,-0.64,2.49
20.767,0.39,-2.50,-0.61,2.60
20.777,0.27,-2.62,-0.84,2.76
20.787,-0.15,-2.44,-1.12,2.69
20.797,-0.50,-1.92,-1.19,2.31
20.807,-0.71,-1.34,-0.71,1.67
20.817,-0.92,-0.76,-0.09,1.19
20.827,-1.17,-0.68,-0.09,1.36
20.837,-1.14,-0.55,0.01,1.26
20.847,-1.16,-0.19,0.41,1.24
20.857,-0.89,0.39,-0.02,0.97
20.867,-0.39,0.41,-0.56,0.80
20.877,-0.82,1.22,-0.77,1.66
20.887,-1.02,1.09,-0.87,1.72
20.897,-0.96,1.17,-0.58,1.62
20.907,-1.16,1.54,-1.01,2.18
20.917,-1.28,1.24,-1.60,2.40
20.927,-0.84,1.33,-1.77,2.37
20.937,-0.38,1.76,-1.71,2.49
20.947,-0.19,1.86,-1.49,2.39
20.957,0.12,1.59,-1.33,2.08
20.967,0.45,1.27,-1.45,1.98
20.976,0.81,1.23,-1.36,2.01
20.987,1.11,1.11,-1.41,2.11
20.997,1.21,0.82,-1.42,2.04
21.007,1.26,0.29,-1.51,1.99
21.016,1.02,0.22,-1.60,1.92
21.027,0.63,0.24,-1.35,1.51
21.036,0.36,0.32,-1.13,1.23
21.047,0.08,0.39,-1.26,1.32
21.056,-0.07,0.76,-1.78,1.94
21.066,-0.02,1.72,-2.31,2.88
21.076,-0.21,1.86,-2.15,2.85
21.086,-0.48,1.58,-2.26,2.80
21.096,-0.99,1.48,-2.55,3.11
21.106,-1.11,2.04,-2.71,3.57
21.116,-0.80,1.83,-3.10,3.69
21.126,-0.35,1.48,-2.89,3.27
21.136,-0.02,1.52,-2.56,2.97
21.146,0.35,1.68,-2.18,2.78
21.156,1.64,4.34,-1.82,4.99
21.166,2.56,6.84,0.16,7.30
21.176,1.14,3.68,0.49,3.89
21.186,-0.43,0.27,-0.42,0.66
21.196,-0.10,2.12,-0.15,2.13
21.206,0.10,3.66,0.70,3.72
21.216,0.59,4.18,0.47,4.25
21.226,0.09,4.79,0.42,4.81
21.236,-0.47,4.62,0.23,4.65
21.246,-0.72,4.89,0.19,4.95
21.256,-0.18,5.39,0.64,5.43
21.266,-0.04,6.05,0.33,6.06
21.276,-0.19,5.74,1.48,5.93
21.286,0.00,5.88,0.14,5.88
21.296,0.37,5.41,-1.52,5.64
21.306,0.39,4.23,-2.47,4.91
21.316,0.27,2.92,-2.60,3.92
21.326,0.25,2.81,-2.46,3.74
21.336,0.63,2.74,-2.14,3.53
21.346,2.10,2.60,-0.58,3.39
21.356,3.93,3.47,0.98,5.33
21.366,4.54,3.82,-0.62,5.97
21.376,4.71,3.29,-2.74,6.37
21.386,4.34,3.17,-4.74,7.17
21.396,3.56,4.36,-5.53,7.89
21.406,3.44,4.79,-3.25,6.73
21.416,3.02,3.97,-5.18,7.19
21.426,2.40,4.33,-6.00,7.78
21.436,2.15,4.15,-5.72,7.38
21.446,2.86,3.48,-4.12,6.10
21.456,3.90,4.27,-1.39,5.95
21.466,4.51,4.96,-1.79,6.94
21.476,4.65,4.14,-4.52,7.69
21.486,4.18,3.06,-6.97,8.68
21.496,3.41,2.25,-8.03,9.01
21.506,2.60,1.48,-8.75,9.24
21.516,1.76,0.58,-9.91,10.08
21.526,1.00,0.24,-9.64,9.70
21.536,0.46,0.31,-8.83,8.85
21.546,-0.08,0.65,-8.54,8.57
21.556,-0.61,1.18,-7.92,8.03
21.566,-1.27,2.03,-7.77,8.13
21.576,-2.25,2.70,-8.47,9.17
21.586,-3.18,2.80,-9.08,10.02
21.596,-4.15,2.75,-8.95,10.24
21.606,-5.20,2.81,-9.09,10.84
21.616,-6.08,2.89,-9.81,11.90
21.626,-6.91,3.05,-9.46,12.10
21.636,-7.62,2.99,-8.59,11.87
21.646,-8.12,3.05,-7.99,11.80
21.656,-8.60,3.14,-7.83,12.05
21.666,-9.07,2.87,-7.58,12.17
21.676,-9.42,2.44,-6.90,11.93
21.686,-9.76,1.64,-6.46,11.82
21.695,-9.95,1.01,-6.17,11.75
21.706,-10.15,0.28,-6.01,11.80
21.716,-10.28,-0.52,-5.76,11.79
21.725,-10.48,-1.16,-5.13,11.72
21.735,-10.53,-1.82,-4.19,11.48
21.745,-10.54,-2.20,-3.64,11.36
21.755,-10.50,-2.68,-3.30,11.33
21.765,-10.23,-2.97,-2.77,11.01
21.775,-9.97,-3.09,-2.17,10.66
21.786,-9.55,-3.40,-1.58,10.26
21.795,-9.11,-3.52,-1.18,9.84
21.805,-8.58,-3.60,-0.39,9.31
21.815,-8.08,-4.40,1.93,9.40
21.825,-7.30,-4.14,2.37,8.72
21.835,-6.89,-3.87,3.06,8.47
21.845,-6.27,-4.36,2.98,8.20
21.855,-5.61,-3.76,3.76,7.73
21.865,-4.89,-3.56,4.04,7.28
21.875,-3.92,-3.25,3.73,6.31
21.885,-2.98,-2.37,3.69,5.30
21.895,-0.09,-1.72,1.60,2.35
21.906,8.17,-0.78,4.76,9.48
21.915,13.33,2.96,20.04,24.25
21.925,4.10,0.53,18.20,18.66
21.935,-1.95,0.70,8.99,9.22
21.945,-2.90,-1.13,4.65,5.60
21.955,-3.89,-3.64,0.97,5.42
21.965,-5.78,-6.12,1.48,8.55
21.975,-6.63,-5.46,0.26,8.60
21.985,-6.33,-4.04,0.42,7.52
21.995,-4.26,-3.05,3.31,6.20
22.005,-0.86,-0.85,4.07,4.24
22.015,0.86,0.79,2.05,2.36
22.025,0.74,0.82,1.27,1.69
22.035,-0.27,0.35,0.87,0.98
22.045,-2.00,0.90,-0.53,2.26
22.055,-2.53,1.46,-1.95,3.51
22.065,-1.67,0.14,-1.66,2.36
22.075,-1.24,0.02,-1.39,1.86
22.085,-1.30,0.25,0.88,1.59
22.095,-0.78,0.64,1.35,1.69
22.105,-1.82,0.62,0.79,2.08
22.115,-2.24,0.56,0.91,2.48
22.125,-1.59,-0.42,1.05,1.95
22.135,-1.27,-1.63,0.40,2.11
22.145,-0.40,-1.99,0.10,2.03
22.155,0.47,-2.70,0.12,2.74
22.165,0.40,-3.19,0.30,3.23
22.175,0.73,-2.51,1.11,2.84
22.185,1.41,-1.77,2.06,3.06
22.194,0.57,-2.07,0.66,2.25
22.205,0.37,-1.59,1.69,2.35
22.214,0.16,-1.60,2.67,3.11
22.225,-0.61,-2.37,2.11,3.23
22.235,-2.12,-7.41,4.81,9.08
22.245,2.13,-6.01,4.63,7.88
22.255,0.81,-7.50,4.22,8.64
22.264,1.17,-7.09,0.39,7.20
22.274,-2.37,-2.15,-3.58,4.81
22.285,-1.82,1.53,-2.87,3.73
22.295,0.67,2.54,-2.40,3.56
22.305,0.85,1.80,-1.27,2.36
22.314,-0.33,0.78,2.11,2.28
22.324,-0.31,-0.79,2.86,2.99
22.335,0.79,-1.04,1.36,1.89
22.344,0.07,0.23,0.77,0.81
22.354,-0.91,1.27,0.29,1.59
22.364,-1.23,1.39,0.14,1.86
22.374,-1.33,0.74,0.40,1.57
22.385,-1.12,-0.02,-0.26,1.15
22.394,-0.72,-0.39,-0.76,1.12
22.404,-0.19,-0.28,-0.28,0.43
22.414,-0.03,-0.12,0.09,0.16
22.424,-0.07,-0.45,-0.28,0.54
22.434,0.04,-0.48,-0.12,0.50
22.444,-0.27,-0.74,-0.63,1.01
22.454,-0.45,-1.00,-1.54,1.88
22.464,-0.50,-0.78,-0.85,1.26
22.474,-0.22,-0.23,0.88,0.94
22.484,0.36,0.02,1.88,1.91
22.494,0.54,-0.23,1.95,2.04
22.504,0.54,-0.53,1.33,1.53
22.514,0.33,-0.45,0.70,0.89
22.524,0.06,-0.04,0.53,0.54
22.534,-0.31,0.28,0.15,0.44
22.544,-0.58,0.55,-0.48,0.93
22.554,-0.66,0.62,-0.66,1.12
22.564,-0.80,0.40,-0.77,1.18
22.574,-0.87,0.43,-0.83,1.28
22.584,-0.98,0.80,-0.38,1.31
22.594,-0.62,0.55,-0.14,0.84
22.604,-0.43,0.23,-0.38,0.61
22.614,-0.27,0.17,-1.00,1.05
22.624,-0.21,0.17,-2.07,2.09
22.635,-0.16,0.13,-4.43,4.44
22.644,-0.60,-0.17,-2.08,2.17
22.654,-0.78,-0.61,0.87,1.31
22.664,-0.40,-1.18,1.08,1.64
22.674,-0.08,-0.84,1.20,1.46
22.684,-0.55,-0.08,1.31,1.43
22.694,-0.83,-0.06,1.15,1.42
22.704,-0.60,-0.30,0.70,0.97
22.714,-0.06,-0.17,-0.06,0.19
22.724,0.30,-0.15,-0.64,0.73
22.734,0.34,-0.22,-0.49,0.63
