time,ax,ay,az,atotal
0.000,0.22,-1.01,1.87,2.14
0.010,-0.18,-0.47,1.74,1.81
0.020,-0.42,-0.39,1.10,1.24
0.030,-0.12,-0.20,0.28,0.36
0.040,-0.01,-0.25,-0.18,0.30
0.050,0.10,-0.49,-0.00,0.50
0.060,0.23,-0.97,0.14,1.01
0.070,0.26,-1.39,0.50,1.50
0.080,0.23,-1.58,0.42,1.65
0.090,0.78,-1.38,0.37,1.62
0.100,0.94,-1.85,0.22,2.09
0.110,0.75,-4.03,-0.63,4.15
0.120,1.57,-3.61,-1.66,4.27
0.130,2.30,-1.46,-0.25,2.73
0.140,2.15,-0.66,1.90,2.94
0.150,1.55,-0.56,3.51,3.87
0.160,0.60,-1.43,4.09,4.38
0.170,-0.44,-2.49,3.90,4.65
0.180,-1.19,-3.40,3.84,5.27
0.190,-1.65,-3.90,4.38,6.10
0.200,-1.84,-4.03,5.04,6.71
0.210,-1.95,-3.72,5.25,6.72
0.220,-2.18,-3.24,5.08,6.41
0.230,-2.39,-2.49,4.94,6.03
0.240,-2.51,-1.41,4.74,5.55
0.250,-3.37,-0.51,4.54,5.68
0.260,-4.50,0.30,4.29,6.23
0.270,-4.97,0.63,3.92,6.36
0.280,-5.24,0.55,3.68,6.43
0.290,-5.01,0.53,3.56,6.17
0.300,-3.89,0.02,3.00,4.92
0.310,-3.14,-0.43,2.45,4.01
0.320,-2.71,-0.42,1.70,3.23
0.330,-2.35,-0.49,0.69,2.50
0.340,-2.47,-0.20,-0.05,2.48
0.350,1.28,1.63,0.59,2.15
0.360,4.40,2.97,-5.76,7.84
0.370,1.98,0.54,-13.76,13.91
0.379,1.49,-0.50,-7.74,7.90
0.389,1.78,-2.84,-7.93,8.61
0.400,2.92,-5.12,-5.62,8.15
0.409,2.44,-6.05,-2.94,7.16
0.420,-0.22,-4.73,0.37,4.74
0.429,-1.73,-2.20,2.79,3.95
0.439,-1.63,-0.34,4.40,4.70
0.450,-0.60,0.27,4.85,4.89
0.459,0.23,0.62,2.71,2.79
0.469,0.36,1.50,0.56,1.64
0.480,-0.12,2.35,0.88,2.51
0.489,-0.93,3.44,-2.27,4.23
0.499,-1.33,3.91,-1.63,4.44
0.509,-0.83,3.24,-0.96,3.48
0.519,-1.17,2.78,0.61,3.08
0.530,-1.08,2.41,0.47,2.68
0.539,-0.66,2.48,-0.90,2.72
0.550,-0.64,2.98,-1.46,3.38
0.559,-1.08,3.30,-2.03,4.02
0.569,-1.50,3.29,-2.50,4.39
0.579,-1.05,3.33,-2.01,4.02
0.589,-0.47,3.45,-1.14,3.66
0.599,0.14,2.69,-0.72,2.79
0.609,0.59,1.24,0.20,1.39
0.619,1.73,2.69,2.88,4.31
0.629,1.61,5.26,2.96,6.24
0.639,1.43,4.84,0.62,5.09
0.649,1.09,2.27,-1.44,2.90
0.659,0.04,-0.61,-2.24,2.32
0.669,-2.26,-2.62,2.06,4.03
0.680,-4.02,-3.27,3.58,6.30
0.689,-3.56,-4.46,3.62,6.76
0.699,-4.50,-4.95,4.00,7.80
0.709,-5.73,-3.67,6.46,9.38
0.719,-6.59,-1.95,9.31,11.57
0.729,-7.99,1.22,6.57,10.41
0.739,-8.30,3.11,5.98,10.69
0.749,-8.95,5.19,5.59,11.76
0.759,-9.14,6.48,4.31,12.01
0.769,-8.50,6.16,4.12,11.28
0.779,-8.01,5.00,3.83,10.19
0.789,-7.87,3.16,3.22,9.07
0.799,-7.39,1.77,2.69,8.06
0.809,-6.52,1.03,2.06,6.92
0.819,-5.42,0.74,1.26,5.62
0.829,-3.86,1.22,0.96,4.16
0.839,-0.77,2.32,1.58,2.91
0.849,1.47,4.76,0.78,5.04
0.860,2.45,6.92,-0.62,7.37
0.869,4.82,7.01,-1.18,8.59
0.879,6.42,6.96,-2.36,9.76
0.889,7.85,7.23,-2.48,10.95
0.899,9.10,8.78,-1.49,12.73
0.909,9.61,10.30,-2.65,14.33
0.919,10.04,9.21,-3.98,14.19
0.929,10.22,8.02,-4.12,13.62
0.939,10.21,7.00,-4.11,13.05
0.949,9.97,6.43,-4.47,12.68
0.959,9.41,6.85,-4.72,12.56
0.969,9.08,7.15,-5.39,12.75
0.979,9.21,7.11,-6.05,13.11
0.989,9.31,6.90,-5.88,13.00
0.999,9.40,6.06,-5.67,12.54
1.009,9.07,4.68,-5.07,11.40
1.019,8.98,2.85,-4.39,10.39
1.029,9.01,0.86,-3.53,9.72
1.038,8.22,-0.70,-2.41,8.60
1.049,6.98,-2.47,-1.32,7.52
1.058,5.23,-3.51,-0.39,6.31
1.068,3.28,-3.67,1.28,5.09
1.078,1.33,-3.95,2.49,4.85
1.088,-0.78,-4.55,2.88,5.44
1.098,-2.43,-5.19,3.27,6.60
1.108,-3.26,-6.06,4.17,8.04
1.118,-3.71,-6.33,4.83,8.79
1.128,-4.13,-5.78,4.46,8.39
1.138,-4.25,-4.67,3.10,7.03
1.149,-4.09,-3.63,2.54,6.03
1.158,-3.57,-3.04,2.36,5.25
1.168,-2.85,-2.56,2.36,4.50
1.178,-2.02,-2.13,2.62,3.94
1.188,-1.38,-1.39,2.87,3.47
1.199,-0.52,-0.48,2.80,2.89
1.208,0.07,0.21,2.39,2.40
1.218,0.09,0.44,1.37,1.44
1.228,-0.10,1.38,0.48,1.46
1.238,0.10,2.90,0.03,2.90
1.248,0.40,3.83,-0.63,3.90
1.258,0.18,4.25,-1.46,4.49
1.268,-0.25,4.29,-2.38,4.92
1.278,-0.23,4.00,-2.08,4.52
1.288,-0.32,3.09,-1.10,3.29
1.298,1.29,1.86,0.03,2.26
1.308,0.93,3.55,2.79,4.61
1.318,-0.01,3.08,-0.71,3.17
1.328,0.91,3.56,-1.59,4.01
1.338,0.77,4.65,0.17,4.72
1.348,1.62,5.55,-1.50,5.97
1.358,2.01,3.78,-1.70,4.61
1.368,-0.90,2.54,-4.40,5.16
1.378,-0.52,1.18,-6.88,7.00
1.388,1.00,2.52,-3.72,4.60
1.398,1.08,4.66,-1.36,4.98
1.408,1.05,4.77,-0.66,4.93
1.418,0.92,2.48,0.00,2.64
1.428,0.70,0.08,0.71,1.00
1.438,1.41,-0.90,1.97,2.59
1.448,1.91,-0.29,2.90,3.48
1.458,2.26,0.84,3.01,3.86
1.468,2.46,2.01,2.65,4.13
1.478,2.45,2.20,2.42,4.08
1.488,1.12,2.45,1.57,3.12
1.498,1.03,1.93,0.61,2.27
1.508,1.10,0.67,-0.47,1.37
1.518,-0.80,1.75,-0.24,1.94
1.528,-3.99,3.00,-0.44,5.01
1.538,-3.93,2.41,1.99,5.02
1.548,-2.01,0.72,3.45,4.06
1.558,-2.02,-4.27,0.33,4.73
1.568,-2.38,-3.65,-0.22,4.37
1.578,-1.14,0.15,-0.29,1.19
1.588,-2.99,2.65,-1.45,4.26
1.598,-3.71,2.16,0.43,4.31
1.608,-1.15,-2.93,-0.09,3.15
1.618,0.79,-7.86,-0.92,7.95
1.628,0.29,-4.93,-0.23,4.94
1.638,-3.10,1.17,-1.57,3.66
1.648,-1.30,-0.72,-0.37,1.53
1.658,0.36,-4.62,0.25,4.64
1.668,-0.61,-5.68,-1.34,5.86
1.678,-0.70,-4.89,-3.18,5.88
1.688,0.28,-4.31,-2.83,5.17
1.697,0.88,-3.62,-2.00,4.22
1.708,1.76,-3.43,-1.24,4.04
1.717,2.89,-3.65,0.02,4.66
1.727,4.07,-3.16,1.79,5.45
1.738,4.76,-3.18,3.68,6.81
1.748,4.61,-4.09,4.33,7.53
1.757,3.85,-4.19,4.10,7.02
1.767,3.93,-3.45,3.97,6.57
1.777,3.32,-1.67,2.94,4.74
1.787,2.42,-0.13,1.12,2.67
1.798,1.25,0.76,-0.56,1.57
1.807,0.21,1.05,-1.81,2.10
1.817,-0.41,1.58,-2.55,3.03
1.827,-0.73,1.74,-2.68,3.28
1.837,-1.15,1.25,-2.17,2.76
1.848,-2.37,1.07,-2.10,3.34
1.857,-0.85,1.67,-0.91,2.09
1.867,-2.19,-0.25,-0.13,2.20
1.877,-1.88,-0.01,-0.15,1.88
1.887,-1.42,-0.21,-0.47,1.51
1.897,-1.04,-0.92,-0.60,1.51
1.907,-0.41,-0.57,-0.42,0.82
1.917,0.19,0.28,-0.29,0.44
1.927,0.19,0.80,-0.36,0.90
1.937,0.73,0.40,0.16,0.84
1.947,0.76,-0.04,1.22,1.44
1.957,0.65,-0.26,1.50,1.66
1.967,0.57,-0.34,1.71,1.83
1.977,0.26,-0.83,2.23,2.39
1.987,0.02,-1.38,2.54,2.90
1.997,0.48,-1.57,1.81,2.45
2.007,-0.63,-0.75,0.53,1.12
2.017,-0.83,0.74,0.92,1.44
2.027,-1.18,1.14,-0.22,1.65
2.037,-0.86,0.88,-0.89,1.52
2.047,-0.89,-0.06,-1.60,1.83
2.057,-1.20,-0.19,-0.79,1.45
2.067,-1.56,-0.86,0.03,1.78
2.077,-1.58,-1.08,0.23,1.93
2.087,-1.58,-0.53,0.04,1.66
2.097,-1.45,-0.17,-0.88,1.70
2.107,-1.00,0.17,-1.72,2.00
2.117,-0.41,0.47,-2.43,2.51
2.127,-0.31,-1.91,-3.06,3.62
2.137,-0.17,-2.29,-0.20,2.31
2.147,1.34,0.18,-0.08,1.35
2.157,1.02,0.65,-0.30,1.24
2.167,0.70,-0.36,0.18,0.81
2.177,0.78,-2.36,1.06,2.70
2.187,1.65,-1.68,1.92,3.04
2.197,1.43,-0.12,0.78,1.63
2.207,1.42,-0.54,0.53,1.61
2.217,0.82,-1.63,0.51,1.90
2.227,-0.92,-2.23,-0.94,2.59
2.237,-0.59,-1.00,0.20,1.18
2.247,-0.89,-0.38,-0.08,0.97
2.257,-1.18,-0.36,-0.15,1.24
2.266,-1.00,-0.61,-0.31,1.22
2.277,0.44,-0.25,-0.10,0.52
2.287,2.89,0.65,-0.61,3.02
2.297,3.98,-0.19,-1.43,4.24
2.306,3.29,-0.95,-3.36,4.80
2.317,2.29,-0.85,-3.06,3.92
2.326,2.61,-1.44,-2.78,4.07
2.336,3.20,-2.10,-1.85,4.25
2.347,3.87,-2.96,-0.49,4.89
2.356,3.84,-2.51,1.20,4.74
2.366,3.41,-0.36,3.00,4.56
2.377,3.37,2.68,3.01,5.25
2.386,2.18,3.09,1.42,4.04
2.396,0.01,2.63,0.36,2.65
2.406,-0.48,3.33,-0.65,3.43
2.416,0.61,5.58,-1.49,5.81
2.426,0.64,5.87,-1.43,6.08
2.436,0.38,4.41,-0.04,4.43
2.446,-1.03,2.93,2.06,3.73
2.456,-3.67,1.39,1.93,4.37
2.466,-4.17,1.28,-0.06,4.36
2.476,-3.90,3.34,-0.98,5.22
2.486,-3.60,4.44,-1.40,5.89
2.496,-2.32,2.43,-1.97,3.89
2.506,-1.23,0.14,-1.07,1.64
2.516,-0.51,-0.69,-1.22,1.49
2.526,0.72,-0.45,-0.63,1.06
2.536,0.62,-0.36,-0.71,1.00
2.546,0.80,-0.69,-0.58,1.20
2.556,0.45,-1.07,0.16,1.17
2.566,0.83,-1.53,0.47,1.80
2.576,2.37,-2.15,1.56,3.56
2.586,2.22,-1.06,1.70,2.99
2.597,1.43,-0.65,1.33,2.06
2.606,1.03,-0.62,0.86,1.48
2.616,0.81,-0.29,0.74,1.13
2.626,0.50,0.16,0.75,0.92
2.636,0.17,0.48,0.54,0.74
2.646,-0.10,0.67,0.23,0.72
2.656,-0.37,0.74,-0.09,0.83
2.666,-0.65,0.29,-1.97,2.10
2.676,-1.10,-5.17,-16.45,17.28
2.686,-0.90,-12.55,5.20,13.62
2.696,-0.26,-17.57,9.77,20.11
2.706,-0.11,-11.39,1.59,11.50
2.716,1.86,-7.14,-3.71,8.26
2.726,2.69,-4.89,-5.04,7.52
2.736,0.58,-1.95,-2.47,3.20
2.746,0.81,2.81,-2.38,3.77
2.756,1.73,3.08,-2.64,4.40
2.766,0.73,4.60,-2.81,5.44
2.776,0.87,8.51,-2.80,9.00
2.786,1.47,10.85,-0.91,10.99
2.796,1.56,11.66,-0.34,11.77
2.806,1.45,8.76,0.09,8.88
2.816,1.16,6.23,0.27,6.34
2.826,0.88,5.94,-0.10,6.01
2.836,1.02,5.58,0.82,5.73
2.846,1.03,5.47,-1.89,5.88
2.856,2.58,3.49,-3.25,5.42
2.865,2.51,1.99,-0.98,3.35
2.876,2.05,0.32,0.50,2.14
2.886,1.18,0.24,0.98,1.56
2.896,-1.52,1.21,-1.09,2.23
2.906,-3.64,-0.11,-2.97,4.70
2.916,-4.06,-3.53,-3.22,6.28
2.926,-0.99,-4.35,-0.46,4.48
2.936,0.84,-2.35,0.87,2.64
2.946,0.73,-1.43,0.16,1.61
2.956,0.65,-1.24,-0.92,1.67
2.966,0.64,-1.19,-1.45,1.98
2.976,0.63,-1.25,-1.28,1.90
2.985,0.45,-0.99,-0.81,1.35
2.996,0.20,-0.71,-0.63,0.97
3.006,-0.09,-0.32,-0.66,0.74
3.016,-0.03,0.04,-0.70,0.70
3.026,0.13,0.16,-0.69,0.72
3.035,0.40,0.15,-0.72,0.83
3.045,0.80,-0.07,-0.75,1.10
3.055,1.03,-0.26,-0.87,1.37
3.066,1.02,-0.28,-1.05,1.49
3.075,1.04,-0.45,-1.07,1.56
3.085,1.11,-0.84,-1.01,1.72
3.095,1.17,-0.89,-1.06,1.81
3.105,1.30,-0.70,-1.17,1.88
3.116,1.43,-0.42,-1.34,2.01
3.125,1.46,0.10,-1.35,1.99
3.135,1.58,0.51,-1.21,2.05
3.145,1.91,0.49,-1.20,2.31
3.155,2.15,0.51,-1.09,2.46
3.165,2.29,0.96,-0.79,2.60
3.175,2.18,1.71,-0.55,2.83
3.185,1.70,2.65,-0.66,3.22
3.195,1.21,3.80,-0.88,4.09
3.205,0.94,4.02,-0.73,4.19
3.215,0.91,3.70,-0.95,3.93
3.225,0.83,2.84,-0.77,3.05
3.235,0.69,1.93,-0.67,2.15
3.245,0.24,1.81,-1.51,2.37
3.255,-0.31,2.19,-1.94,2.94
3.265,-0.53,2.21,-1.93,2.98
3.275,-0.54,2.07,-1.83,2.81
3.285,-0.57,2.63,-1.87,3.28
3.295,-0.72,3.34,-2.30,4.12
3.305,-0.72,3.79,-2.29,4.49
3.315,-0.44,4.23,-1.63,4.56
3.325,-0.57,5.10,-0.85,5.20
3.335,-0.41,5.95,-0.15,5.97
3.345,-0.26,6.43,0.30,6.44
3.355,-0.42,6.09,0.37,6.12
3.365,-0.35,4.06,0.68,4.13
3.375,-0.52,2.74,0.81,2.90
3.385,-0.69,1.92,0.65,2.14
3.395,-0.72,0.86,0.93,1.45
3.405,-0.52,-0.44,0.60,0.91
3.415,-0.03,-1.65,0.06,1.65
3.425,0.30,-3.10,-0.62,3.17
3.435,0.37,-4.52,-1.20,4.69
3.445,0.33,-5.70,-0.94,5.79
3.455,0.29,-6.46,-0.51,6.49
3.465,0.03,-7.33,-0.35,7.33
3.475,-0.30,-7.89,-0.11,7.90
3.485,-0.76,-7.82,0.20,7.86
3.495,-1.14,-7.18,0.52,7.28
3.505,-1.37,-6.00,0.69,6.20
3.515,-1.38,-4.24,0.92,4.56
3.525,-1.11,-2.31,1.07,2.77
3.535,-0.56,-0.46,0.77,1.06
3.545,0.13,0.19,0.47,0.52
3.555,0.76,0.08,-0.52,0.92
3.565,0.80,0.18,-1.75,1.94
3.575,0.33,-0.16,-2.33,2.36
3.585,-0.62,-0.70,-1.60,1.86
3.595,-1.71,-1.54,-0.53,2.36
3.605,-2.62,-2.61,-0.31,3.72
3.615,-3.13,-3.54,-0.70,4.77
3.625,-3.24,-3.84,-1.00,5.12
3.635,-3.30,-3.46,-0.97,4.88
3.645,-3.45,-2.79,-0.90,4.53
3.655,-3.41,-2.14,-0.85,4.11
3.664,-3.04,-1.39,-0.95,3.47
3.675,-2.78,-0.55,-0.78,2.94
3.684,-2.19,0.53,-1.95,2.98
3.695,-1.63,1.62,-2.42,3.33
3.705,-1.08,2.51,-2.29,3.56
3.715,-0.54,3.35,-2.03,3.95
3.725,-0.07,4.13,-2.00,4.59
3.734,0.51,4.53,-2.45,5.18
3.744,1.05,4.17,-2.78,5.12
3.754,1.37,4.23,-2.96,5.34
3.764,1.70,4.02,-2.56,5.06
3.774,1.92,4.30,-2.04,5.13
3.784,1.61,5.41,-1.86,5.94
3.794,1.10,5.96,-1.95,6.36
3.804,0.31,6.11,-2.10,6.47
3.814,-0.56,6.05,-2.51,6.57
3.824,-1.21,5.49,-2.78,6.27
3.834,-1.57,3.68,-2.27,4.60
3.844,-2.00,1.94,-1.07,2.98
3.854,-1.87,0.75,0.40,2.06
3.864,-1.18,-0.03,1.40,1.83
3.874,-0.56,-0.45,1.54,1.70
3.884,-0.15,-1.34,1.14,1.76
3.894,1.61,-3.39,0.38,3.77
3.904,4.10,-5.56,-0.70,6.94
3.914,4.27,-4.84,-1.64,6.66
3.924,4.50,-4.69,-1.73,6.73
3.934,4.68,-4.88,-1.18,6.86
3.944,5.06,-4.72,-0.29,6.93
3.954,5.49,-4.85,0.70,7.36
3.964,5.88,-4.93,1.54,7.83
3.974,6.26,-4.86,1.50,8.06
3.984,6.24,-4.43,1.28,7.75
3.994,5.92,-1.47,1.98,6.41
4.004,5.16,1.96,2.51,6.07
4.014,4.47,4.46,2.53,6.80
4.024,3.56,5.98,1.99,7.24
4.034,1.77,7.16,0.96,7.44
4.044,-1.04,8.18,0.17,8.25
4.054,-3.46,7.83,0.70,8.59
4.064,-4.92,4.26,1.01,6.58
4.074,-5.59,-0.63,1.42,5.80
4.084,-5.75,-3.39,2.63,7.17
4.094,-4.83,-4.35,3.19,7.24
4.104,-3.23,-3.67,2.42,5.45
4.114,-1.35,-1.91,0.92,2.51
4.124,0.07,0.22,-0.72,0.76
4.134,0.49,2.25,-2.07,3.09
4.144,0.64,4.10,-2.91,5.07
4.154,1.16,5.63,-2.89,6.43
4.164,1.75,5.68,-2.08,6.30
4.174,1.51,4.36,-1.14,4.75
4.184,0.73,3.49,-0.60,3.61
4.194,0.21,3.07,-0.31,3.09
4.204,0.06,2.69,-0.31,2.71
4.214,0.22,2.01,-0.85,2.19
4.224,0.46,1.21,-1.81,2.23
4.234,0.71,0.20,-2.89,2.99
4.244,0.84,-0.68,-3.74,3.89
4.254,0.97,-1.22,-3.96,4.26
4.264,1.00,-1.67,-3.72,4.19
4.274,1.02,-2.44,-3.20,4.15
4.284,1.04,-2.96,-1.54,3.49
4.294,1.63,-2.64,1.47,3.43
4.304,2.98,-2.13,3.49,5.06
4.314,3.17,-1.78,3.50,5.04
4.324,0.49,-0.32,3.65,3.69
4.334,-3.46,1.11,2.48,4.40
4.344,-6.20,1.55,2.34,6.81
4.354,-7.45,1.76,2.90,8.18
4.363,-7.69,1.70,2.01,8.12
4.373,-6.13,-1.16,1.58,6.44
4.383,-4.04,-5.41,2.12,7.08
4.394,-3.47,-5.91,2.33,7.24
4.403,-3.18,-5.13,2.03,6.37
4.413,-2.88,-4.61,1.37,5.60
4.423,-2.51,-3.89,0.75,4.68
4.433,-1.95,-3.34,0.39,3.88
4.443,-1.30,-2.97,0.39,3.26
4.454,-0.30,-2.65,0.58,2.73
4.463,0.65,-2.34,0.90,2.59
4.473,1.22,-2.04,0.52,2.43
4.483,1.18,-0.83,-0.12,1.44
4.493,0.86,1.22,-0.58,1.60
4.503,0.41,3.60,-0.53,3.66
4.513,-0.10,5.68,0.14,5.68
4.523,-0.35,7.01,0.50,7.03
4.533,0.35,4.42,-0.21,4.44
4.543,0.91,-0.83,-1.00,1.58
4.553,0.57,-3.43,-1.65,3.85
4.563,0.40,-4.39,-2.25,4.95
4.573,0.37,-4.78,-2.41,5.36
4.583,0.21,-4.93,-2.46,5.52
4.593,0.00,-4.76,-2.40,5.33
4.603,-0.33,-4.51,-2.00,4.94
4.613,-0.83,-4.16,-1.46,4.49
4.623,-1.24,-3.60,-0.99,3.93
4.633,-1.58,-2.89,-0.90,3.42
4.643,-1.74,-2.12,-1.26,3.02
4.653,-1.69,-1.22,-1.93,2.84
4.663,-1.65,-0.34,-2.29,2.85
4.673,-1.74,0.02,-2.49,3.04
4.683,-1.77,0.02,-2.44,3.02
4.693,-1.52,-0.32,-2.03,2.56
4.703,-0.99,-0.47,-2.00,2.28
4.713,-0.30,-0.13,-2.47,2.49
4.723,0.53,0.27,-2.74,2.80
4.733,0.81,1.18,-2.77,3.12
4.743,0.92,1.95,-2.77,3.51
4.753,0.85,2.64,-2.57,3.78
4.763,0.61,3.53,-1.80,4.01
4.773,0.43,5.00,-1.18,5.16
4.783,0.26,6.96,-1.00,7.04
4.793,0.23,8.99,-1.34,9.10
4.803,-0.08,10.50,-0.87,10.53
4.813,-0.76,11.38,0.11,11.41
4.823,-0.58,10.36,0.36,10.38
4.833,0.34,8.11,0.58,8.14
4.843,0.96,6.41,1.19,6.59
4.853,1.07,5.14,2.47,5.80
4.863,0.77,3.58,3.32,4.94
4.873,0.86,1.20,2.68,3.06
4.882,2.94,-3.42,0.79,4.58
4.893,4.63,-7.86,-0.88,9.16
4.902,4.91,-8.74,-2.37,10.30
4.912,4.94,-9.72,-3.03,11.32
4.922,5.10,-11.01,-2.82,12.45
4.933,4.79,-11.35,-2.55,12.58
4.942,3.67,-8.06,-2.41,9.18
4.952,2.94,-3.69,-1.14,4.85
4.962,2.84,-1.93,0.12,3.43
4.972,2.22,1.07,1.43,2.85
4.982,0.82,3.62,2.57,4.52
4.992,-1.16,6.11,3.36,7.07
5.002,-3.74,8.67,2.90,9.88
5.012,-5.98,10.56,1.23,12.20
5.022,-6.52,11.79,0.86,13.50
5.032,-6.37,9.07,3.72,11.69
5.043,-6.19,3.84,5.93,9.39
5.052,-5.76,0.11,5.64,8.07
5.062,-4.53,-2.58,4.55,6.92
5.072,-2.74,-4.24,3.29,6.02
5.083,-1.12,-4.20,1.73,4.68
5.092,0.41,-2.88,-1.09,3.10
5.102,1.09,-0.91,-3.39,3.68
5.112,1.04,1.31,-4.57,4.86
5.122,0.97,3.19,-5.29,6.25
5.132,0.93,4.01,-4.98,6.46
5.142,0.83,3.91,-3.66,5.42
5.152,0.75,3.30,-2.84,4.42
5.162,0.71,2.40,-1.97,3.19
5.172,0.82,1.71,-0.95,2.12
5.182,1.21,0.42,-0.09,1.28
5.192,1.51,-0.98,-0.10,1.80
5.202,1.54,-2.01,-1.36,2.87
5.212,1.46,-2.75,-2.96,4.30
5.222,1.19,-3.22,-4.17,5.40
5.232,0.80,-3.27,-4.91,5.96
5.242,0.79,-3.40,-5.10,6.18
5.252,0.93,-3.29,-4.49,5.65
5.262,1.29,-3.00,-2.69,4.23
5.272,1.95,-2.46,0.44,3.17
5.282,2.86,-1.26,3.55,4.73
5.292,3.31,0.06,4.35,5.47
5.302,1.57,0.81,4.13,4.49
5.312,-1.76,1.70,2.18,3.28
5.322,-4.29,3.35,0.91,5.51
5.332,-5.60,4.51,1.17,7.28
5.342,-4.70,2.36,1.64,5.51
5.352,-2.88,-3.17,2.05,4.75
5.362,-2.25,-6.19,2.12,6.92
5.372,-2.44,-6.29,1.88,7.01
5.382,-2.44,-6.16,1.55,6.80
5.392,-2.25,-5.95,1.20,6.47
5.402,-2.17,-5.75,0.92,6.21
5.412,-2.18,-5.80,0.39,6.21
5.422,-2.07,-6.22,-0.29,6.56
5.432,-1.94,-6.03,-0.51,6.36
5.442,-1.80,-5.24,-0.43,5.56
5.452,-1.28,-4.33,-0.28,4.52
5.462,-0.58,-2.61,0.00,2.67
5.472,-0.16,0.42,-0.02,0.45
5.482,-0.03,4.10,0.23,4.11
5.492,0.07,7.59,0.67,7.62
5.502,0.26,10.30,0.84,10.34
5.512,0.97,8.96,0.49,9.03
5.522,1.35,1.05,-0.21,1.73
5.532,0.54,-3.43,-0.47,3.50
5.542,-0.00,-4.18,-0.63,4.23
5.552,-0.55,-3.34,-0.86,3.49
5.562,-1.19,-2.44,-0.94,2.87
5.572,-1.81,-2.13,-0.78,2.90
5.582,-2.12,-2.13,-0.67,3.08
5.592,-1.95,-2.15,-0.50,2.94
5.601,-1.51,-2.10,-0.47,2.63
5.612,-0.92,-1.58,-0.61,1.93
5.621,-0.48,-0.52,-1.07,1.28
5.632,-0.31,0.58,-1.77,1.89
5.641,-0.16,1.32,-2.35,2.69
5.651,0.03,1.59,-2.76,3.19
5.662,0.39,1.39,-2.85,3.20
5.671,0.53,1.06,-2.65,2.90
5.681,0.60,1.10,-2.61,2.89
5.691,0.66,1.55,-2.96,3.40
5.701,0.59,2.43,-3.29,4.14
5.711,0.56,3.22,-3.04,4.47
5.721,0.67,3.46,-2.42,4.28
5.732,0.97,3.10,-1.90,3.76
5.741,1.28,2.69,-1.60,3.38
5.751,1.14,3.00,-1.90,3.73
5.761,1.19,3.23,-1.68,3.83
5.771,1.07,3.57,-1.17,3.91
5.781,0.98,3.75,-0.63,3.93
5.791,0.66,3.47,0.32,3.55
5.801,0.69,3.03,0.95,3.25
5.811,1.53,2.89,0.71,3.34
5.821,2.71,2.95,0.51,4.04
5.831,3.79,2.91,0.70,4.83
5.841,4.55,2.90,0.73,5.44
5.851,4.66,2.46,0.73,5.32
5.861,5.13,0.38,0.75,5.20
5.871,5.41,-3.17,0.37,6.28
5.881,3.77,-4.28,0.49,5.72
5.891,2.63,-5.13,0.69,5.81
5.901,2.18,-6.12,0.83,6.55
5.911,2.13,-7.15,0.87,7.51
5.921,2.08,-7.14,0.38,7.44
5.931,1.23,-4.47,0.03,4.63
5.941,-0.25,-0.28,0.27,0.46
5.951,-1.45,2.58,0.77,3.06
5.961,-2.98,5.68,0.78,6.46
5.971,-4.18,6.97,-1.16,8.21
5.981,-5.03,6.28,-3.31,8.70
5.991,-5.67,4.97,-2.38,7.91
6.001,-5.38,2.84,0.94,6.16
6.011,-4.04,0.66,4.04,5.75
6.021,-2.27,-0.91,5.05,5.61
6.031,-0.59,-0.62,4.09,4.18
6.041,-0.10,1.87,2.07,2.79
6.051,-0.53,5.93,-0.14,5.95
6.061,-0.85,10.78,-2.28,11.06
6.071,0.46,13.47,-4.68,14.27
6.081,2.27,11.89,-6.21,13.60
6.091,2.79,7.98,-5.14,9.90
6.101,1.51,4.67,-2.49,5.51
6.111,0.18,2.71,0.12,2.72
6.121,-0.40,1.23,0.74,1.49
6.131,-0.48,-0.37,-0.67,0.90
6.141,-0.42,-2.19,-2.67,3.48
6.151,-0.39,-3.83,-3.90,5.48
6.161,-0.46,-5.09,-3.95,6.46
6.171,-0.28,-6.35,-3.79,7.40
6.181,0.05,-8.16,-3.85,9.03
6.191,0.57,-10.65,-2.81,11.03
6.201,1.61,-12.62,-0.51,12.74
6.211,3.06,-13.21,1.17,13.60
6.221,3.72,-14.10,2.01,14.72
6.231,2.03,-15.46,2.68,15.82
6.241,-1.02,-14.13,3.44,14.58
6.250,-2.98,-11.25,4.74,12.56
6.261,-4.53,-6.17,6.41,9.99
6.271,-5.58,-0.16,5.38,7.75
6.280,-4.97,5.51,1.08,7.50
6.291,-3.28,10.48,-4.03,11.70
6.300,-3.17,12.51,-1.23,12.97
6.310,-4.09,9.37,1.67,10.35
6.320,-2.95,2.65,0.58,4.01
6.330,-1.50,-1.66,-1.71,2.82
6.340,-0.92,-1.92,-1.47,2.59
6.350,-0.55,-0.85,0.59,1.17
6.360,0.44,-0.93,1.05,1.47
6.370,1.54,-1.62,-0.40,2.27
6.380,2.31,-1.69,-1.84,3.40
6.390,2.92,-1.24,-2.25,3.89
6.400,3.04,-0.78,-0.99,3.29
6.410,2.14,-0.33,0.12,2.17
6.420,0.44,0.40,0.54,0.80
6.430,-1.43,0.75,1.05,1.92
6.440,-3.02,0.35,1.22,3.28
6.450,-3.84,-0.24,0.47,3.88
6.460,-4.07,-0.44,-1.01,4.21
6.470,-3.86,0.35,-1.71,4.24
6.480,-3.84,1.14,-1.94,4.45
6.490,-3.84,1.54,-1.35,4.35
6.500,-3.79,1.07,-0.43,3.96
6.510,-3.41,0.49,-0.06,3.45
6.520,-2.72,0.25,-0.06,2.73
6.530,-1.81,0.21,-0.61,1.92
6.540,-0.76,0.59,-1.54,1.82
6.550,0.09,1.52,-2.15,2.63
6.560,0.74,2.59,-2.55,3.71
6.570,1.38,3.40,-2.98,4.73
6.580,2.03,3.91,-3.32,5.51
6.590,2.67,4.18,-3.34,5.98
6.600,3.22,4.08,-3.08,6.04
6.610,3.65,3.64,-2.68,5.81
6.620,3.99,3.11,-2.54,5.66
6.630,3.62,2.78,-2.50,5.21
6.640,2.81,2.49,-1.99,4.25
6.650,1.94,1.85,-1.09,2.90
6.660,1.02,0.61,0.03,1.19
6.670,0.93,-0.55,0.70,1.29
6.680,1.72,-0.83,1.04,2.17
6.690,2.38,-0.52,1.28,2.75
6.700,2.51,-0.25,1.44,2.91
6.710,2.24,-0.07,1.51,2.70
6.720,1.72,-0.19,1.29,2.16
6.730,1.30,-0.74,0.85,1.72
6.740,1.59,-2.32,0.22,2.82
6.750,2.26,-3.96,0.13,4.56
6.760,1.92,-4.34,1.09,4.87
6.770,0.81,-3.79,1.89,4.31
6.780,-0.97,-1.58,1.60,2.45
6.790,-3.31,2.25,0.53,4.03
6.799,-2.97,4.73,0.73,5.64
6.810,-1.44,6.02,1.50,6.37
6.819,-0.90,7.42,2.69,7.94
6.830,-1.59,8.12,3.94,9.17
6.840,-2.53,6.28,3.88,7.81
6.849,-2.84,2.67,3.44,5.20
6.860,-2.51,-0.12,3.52,4.33
6.870,-1.98,-2.09,3.47,4.51
6.879,-1.97,-3.30,3.07,4.92
6.890,-2.18,-4.16,2.68,5.40
6.899,-2.09,-4.74,2.36,5.69
6.910,-1.24,-5.28,1.63,5.66
6.919,0.11,-4.79,0.31,4.80
6.930,1.21,-4.06,-1.15,4.38
6.939,1.88,-3.43,-2.57,4.68
6.949,2.38,-3.23,-3.62,5.41
6.959,2.22,-2.05,-3.42,4.56
6.969,1.94,-0.76,-2.15,3.00
6.979,1.93,-0.15,-0.69,2.06
6.989,2.16,-0.17,0.61,2.25
6.999,2.30,-0.66,1.97,3.10
7.009,2.11,-0.90,2.89,3.69
7.019,1.32,-0.15,2.30,2.66
7.029,0.65,0.35,0.51,0.90
7.039,0.45,0.45,-1.68,1.80
7.049,0.42,0.52,-3.66,3.72
7.059,0.44,0.55,-4.44,4.50
7.069,0.43,0.73,-4.38,4.46
7.080,0.71,0.85,-4.30,4.44
7.089,1.59,0.75,-3.54,3.96
7.099,2.69,0.80,-1.38,3.13
7.109,3.76,1.97,2.16,4.76
7.119,3.77,3.91,2.90,6.15
7.129,2.33,4.48,1.35,5.23
7.139,0.11,4.70,-0.44,4.72
7.149,-2.85,5.51,0.13,6.20
7.159,-5.79,6.45,2.36,8.98
7.169,-6.64,6.45,2.08,9.49
7.179,-2.98,-0.16,1.40,3.29
7.189,-0.31,-5.05,1.42,5.26
7.199,-0.14,-4.98,1.17,5.12
7.209,-0.78,-4.45,0.41,4.53
7.219,-1.33,-4.63,-0.13,4.82
7.229,-1.72,-4.53,-0.18,4.85
7.239,-1.73,-4.38,-0.16,4.71
7.249,-1.53,-3.96,-0.39,4.26
7.259,-1.03,-3.43,-0.89,3.69
7.269,-0.44,-2.80,-1.47,3.20
7.279,0.01,-1.93,-1.51,2.45
7.289,0.49,-0.34,-0.71,0.93
7.299,0.41,1.46,0.80,1.71
7.309,-0.37,2.92,1.84,3.47
7.319,-0.81,4.24,1.65,4.62
7.329,-0.67,4.13,0.32,4.20
7.339,0.17,1.28,-0.83,1.54
7.349,0.88,-1.55,-1.33,2.22
7.359,1.17,-3.70,-1.71,4.24
7.369,1.19,-5.54,-2.42,6.16
7.379,1.05,-7.13,-3.04,7.82
7.389,0.99,-8.32,-3.25,8.98
7.399,0.93,-8.81,-3.03,9.36
7.409,0.73,-8.67,-2.33,9.01
7.419,0.42,-8.12,-1.50,8.27
7.429,0.14,-7.32,-0.63,7.35
7.438,0.05,-6.37,-0.11,6.37
7.448,-0.03,-5.22,-0.14,5.22
7.458,-0.22,-3.60,-0.52,3.65
7.468,-0.64,-1.64,-0.90,1.97
7.479,-1.23,0.62,-1.17,1.81
7.489,-1.86,2.81,-1.46,3.67
7.498,-2.58,4.75,-1.92,5.74
7.509,-3.52,6.86,-1.61,7.88
7.518,-4.54,8.25,-0.79,9.45
7.529,-4.32,7.90,-0.39,9.02
7.538,-1.28,4.04,-0.09,4.24
7.548,0.77,1.61,-0.25,1.80
7.558,1.38,1.53,0.06,2.06
7.568,1.60,2.42,-0.54,2.95
7.579,1.27,3.20,-0.85,3.55
7.588,0.75,4.03,-1.20,4.27
7.598,0.41,4.98,-1.91,5.35
7.608,0.31,5.94,-2.56,6.48
7.618,0.45,6.78,-3.00,7.43
7.628,0.62,7.51,-3.12,8.16
7.638,0.45,8.32,-2.86,8.81
7.648,0.15,8.97,-1.97,9.18
7.658,0.35,9.17,-0.67,9.20
7.668,0.97,8.52,0.52,8.60
7.678,1.81,6.81,1.59,7.22
7.688,2.54,4.73,2.27,5.84
7.698,3.07,3.04,2.62,5.05
7.708,3.67,1.62,2.47,4.71
7.718,4.74,-0.80,1.02,4.91
7.728,5.83,-5.59,-0.60,8.10
7.738,5.74,-8.59,-1.00,10.38
7.748,4.69,-10.09,-1.98,11.30
7.758,3.05,-10.55,-2.11,11.18
7.768,1.34,-8.34,-1.92,8.66
7.778,0.46,-4.45,-2.11,4.94
7.788,0.71,-2.27,-2.05,3.14
7.798,0.56,-0.11,-0.21,0.61
7.808,-0.73,2.74,1.99,3.46
7.818,-2.75,5.76,3.51,7.28
7.828,-5.10,8.79,3.11,10.63
7.838,-7.50,9.87,2.25,12.60
7.848,-7.89,7.94,3.49,11.72
7.858,-5.56,4.58,6.36,9.61
7.868,-3.88,0.94,7.71,8.68
7.878,-2.77,-2.97,6.62,7.76
7.888,-1.20,-5.63,4.46,7.29
7.898,-0.22,-5.82,2.91,6.51
7.908,-0.51,-2.68,1.88,3.31
7.918,-0.28,-0.64,0.83,1.08
7.928,0.18,0.86,-0.34,0.94
7.938,0.51,2.75,-2.01,3.45
7.948,1.03,4.33,-3.78,5.84
7.958,1.93,3.92,-4.49,6.26
7.968,2.70,2.50,-3.55,5.11
7.978,3.18,1.86,-2.18,4.28
7.988,2.99,0.79,-0.77,3.19
7.998,2.73,-1.56,0.29,3.15
8.008,2.37,-3.58,0.74,4.36
8.018,1.69,-4.59,0.70,4.94
8.028,0.93,-5.17,-0.11,5.25
8.038,0.41,-5.40,-1.68,5.67
8.048,0.21,-5.89,-2.72,6.49
8.058,0.36,-6.42,-3.15,7.16
8.068,1.03,-5.77,-2.59,6.41
8.078,2.28,-4.10,-1.29,4.87
8.088,3.56,-2.22,0.15,4.20
8.097,1.75,2.17,2.49,3.74
8.108,-3.05,6.04,2.99,7.40
8.117,-6.17,6.72,1.01,9.18
8.128,-6.16,6.40,-0.21,8.88
8.138,-5.11,6.66,-0.22,8.40
8.147,-4.29,5.61,1.25,7.17
8.158,-3.25,-0.38,3.18,4.56
8.167,-2.03,-7.10,2.78,7.89
8.178,-2.49,-8.91,1.42,9.36
8.188,-3.43,-7.85,0.72,8.60
8.197,-3.90,-6.32,-0.41,7.44
8.207,-3.74,-4.51,-1.73,6.11
8.217,-2.70,-2.39,-2.10,4.17
8.227,-1.09,-0.92,-1.90,2.38
8.238,0.59,-0.31,-1.58,1.72
8.247,2.00,0.86,-1.05,2.41
8.257,2.94,2.62,-0.83,4.02
8.267,3.12,4.50,-0.96,5.56
8.277,2.89,6.72,-0.24,7.32
8.287,2.35,8.37,1.23,8.79
8.297,1.72,6.19,2.03,6.74
8.307,0.73,1.31,1.37,2.03
8.317,-0.70,-1.56,0.82,1.90
8.327,-1.75,-3.54,0.13,3.95
8.337,-2.07,-4.98,-0.94,5.47
8.347,-2.09,-5.96,-1.98,6.62
8.357,-2.08,-6.55,-2.82,7.43
8.367,-1.99,-6.49,-2.72,7.32
8.377,-1.81,-6.27,-1.86,6.79
8.387,-1.50,-6.02,-0.78,6.25
8.397,-1.19,-5.59,0.28,5.72
8.407,-0.92,-4.75,0.69,4.89
8.417,-0.51,-3.53,0.11,3.57
8.427,-0.04,-2.05,-0.85,2.22
8.437,0.47,-0.48,-1.21,1.38
8.447,0.74,1.48,-1.23,2.06
8.457,0.60,2.78,-1.59,3.26
8.467,0.02,3.35,-2.26,4.04
8.477,-0.54,3.14,-2.64,4.14
8.487,-0.49,2.30,-2.24,3.24
8.497,0.16,1.79,-2.08,2.75
8.507,0.88,1.65,-2.11,2.82
8.517,1.26,1.51,-1.98,2.79
8.527,1.39,1.67,-1.93,2.91
8.537,1.53,2.00,-1.93,3.17
8.547,1.54,2.32,-1.88,3.36
8.557,1.47,2.69,-1.85,3.58
8.567,1.34,3.17,-1.82,3.89
8.577,1.12,3.83,-1.79,4.38
8.587,0.81,4.71,-1.76,5.10
8.597,0.21,5.94,-1.67,6.17
8.607,-0.82,7.25,-1.19,7.39
8.616,-1.52,8.39,-0.23,8.53
8.627,-1.31,8.70,0.87,8.84
8.637,-0.53,7.40,1.73,7.61
8.647,0.41,5.31,2.20,5.76
8.657,0.93,3.51,2.47,4.40
8.667,0.99,2.25,2.97,3.85
8.676,1.19,1.00,3.19,3.55
8.687,2.38,-1.38,2.68,3.84
8.697,2.89,-5.45,1.96,6.47
8.707,2.56,-7.67,1.16,8.17
8.717,2.29,-9.44,0.46,9.72
8.727,1.82,-9.77,-0.20,9.94
8.736,1.70,-7.68,-1.12,7.94
8.747,1.68,-4.75,-2.04,5.44
8.757,1.88,-1.98,-2.07,3.42
8.767,1.53,0.62,-1.49,2.23
8.777,1.15,3.63,-0.40,3.82
8.787,0.98,6.06,0.00,6.14
8.797,0.60,6.65,-0.26,6.69
8.807,-0.46,4.97,0.62,5.02
8.816,-2.14,1.92,3.17,4.28
8.827,-3.67,-0.68,5.33,6.51
8.836,-3.95,-2.66,5.53,7.30
8.847,-3.03,-4.54,4.90,7.33
8.856,-1.50,-5.68,4.46,7.38
8.866,-0.17,-5.40,3.62,6.50
8.876,0.78,-4.37,2.62,5.16
8.886,1.60,-3.75,1.77,4.45
8.896,2.22,-3.50,1.15,4.30
8.906,2.21,-3.05,0.35,3.78
8.916,1.92,-2.78,-0.45,3.41
8.926,1.24,-1.47,-1.26,2.30
8.936,0.54,-0.32,-1.58,1.70
8.946,-0.02,0.42,-1.49,1.54
8.956,-0.39,1.09,-1.04,1.55
8.966,-0.52,1.69,-0.17,1.78
8.976,-0.43,2.39,0.67,2.52
8.986,-0.63,2.48,0.72,2.65
8.996,-1.17,2.99,-0.29,3.22
9.006,-1.68,4.01,-1.65,4.65
9.016,-1.87,4.74,-2.93,5.88
9.026,-1.69,4.70,-3.66,6.19
9.036,-1.34,3.54,-3.67,5.27
9.046,-1.05,1.56,-3.15,3.67
9.056,-1.06,0.04,-1.78,2.07
9.066,-1.27,0.61,0.73,1.58
9.076,-1.49,3.62,1.16,4.08
9.086,-1.75,6.35,0.89,6.64
9.096,-1.83,8.03,-1.06,8.31
9.106,-2.67,8.96,-1.59,9.48
9.116,-4.37,9.35,0.37,10.33
9.126,-4.16,6.42,1.68,7.83
9.136,-2.22,-0.11,2.12,3.07
9.146,-1.47,-3.38,2.23,4.31
9.156,-1.37,-3.97,1.46,4.45
9.166,-0.85,-4.07,0.64,4.21
9.176,-0.09,-4.62,0.34,4.63
9.186,0.50,-5.43,0.28,5.46
9.196,0.69,-6.36,0.20,6.40
9.206,0.55,-6.99,0.16,7.01
9.216,0.32,-7.10,0.15,7.11
9.226,0.04,-6.55,0.05,6.55
9.236,-0.11,-5.11,-0.06,5.11
9.246,0.37,-3.71,-0.33,3.74
9.256,0.68,-2.35,-0.18,2.45
9.266,0.94,-0.07,0.33,1.00
9.276,0.56,2.47,1.38,2.89
9.286,-0.00,4.93,0.81,4.99
9.296,-0.56,7.60,-0.43,7.63
9.306,-1.28,9.16,-0.70,9.28
9.316,-0.96,4.06,-1.16,4.33
9.326,-1.28,-2.46,-1.48,3.14
9.336,-1.70,-5.41,-1.85,5.96
9.346,-1.12,-6.28,-2.76,6.95
9.356,-0.09,-5.97,-3.05,6.70
9.366,0.58,-5.64,-3.03,6.43
9.376,0.44,-5.69,-2.68,6.30
9.385,0.01,-5.42,-1.84,5.72
9.396,-0.19,-4.95,-1.11,5.08
9.406,-0.41,-4.59,-0.76,4.67
9.415,-0.74,-4.12,-0.82,4.26
9.426,-1.07,-3.32,-1.38,3.75
9.436,-1.23,-2.20,-2.20,3.34
9.446,-1.31,-0.97,-2.73,3.18
9.455,-1.15,-0.13,-2.99,3.21
9.465,-0.99,0.29,-3.46,3.61
9.476,-1.15,0.49,-3.71,3.92
9.485,-1.34,0.40,-3.55,3.82
9.495,-1.30,0.25,-3.20,3.46
9.506,-0.97,0.42,-2.85,3.04
9.515,-0.37,1.14,-2.68,2.94
9.525,0.23,2.71,-2.44,3.65
9.535,0.71,4.48,-2.06,4.98
9.545,0.92,6.32,-1.43,6.54
9.555,0.88,7.55,-0.42,7.61
9.565,0.92,8.15,0.21,8.20
9.575,0.82,7.97,0.83,8.05
9.585,0.69,7.19,1.49,7.38
9.595,0.92,6.23,2.47,6.76
9.605,1.96,5.81,3.20,6.92
9.615,3.32,6.55,3.38,8.09
9.625,3.46,6.70,3.33,8.24
9.635,2.87,5.76,2.41,6.87
9.645,2.25,4.34,0.92,4.98
9.655,1.74,2.86,-0.13,3.35
9.665,1.26,1.49,-0.68,2.06
9.675,0.97,0.23,-0.83,1.29
9.685,1.49,-0.97,-0.91,2.00
9.695,3.41,-2.76,-1.50,4.64
9.705,4.58,-5.54,-3.33,7.92
9.715,3.73,-7.60,-2.59,8.85
9.725,3.52,-8.43,-0.16,9.14
9.735,3.04,-8.06,0.53,8.63
9.745,2.03,-7.02,0.09,7.31
9.755,0.88,-4.84,-0.22,4.92
9.765,-0.27,-0.15,-0.11,0.33
9.775,-1.23,4.72,-0.12,4.88
9.785,-1.67,7.80,-0.82,8.02
9.795,-1.75,8.25,-1.79,8.62
9.805,-1.55,6.08,-0.88,6.33
9.815,-1.78,2.83,2.60,4.23
9.825,-2.93,1.03,5.86,6.63
9.835,-3.58,-0.68,6.67,7.60
9.845,-3.24,-2.82,6.53,7.81
9.855,-2.51,-4.25,5.80,7.62
9.865,-1.72,-4.18,4.54,6.41
9.875,-0.98,-3.23,3.01,4.53
9.885,-0.14,-3.08,1.46,3.41
9.895,0.50,-3.15,-0.12,3.20
9.905,0.82,-3.14,-1.77,3.70
9.915,0.80,-2.76,-3.33,4.40
9.925,0.75,-1.73,-3.82,4.26
9.935,1.00,-0.85,-3.29,3.54
9.945,0.89,0.77,-1.94,2.27
9.955,0.96,2.30,-0.27,2.51
9.965,1.00,3.14,1.28,3.53
9.975,0.83,3.42,2.18,4.14
9.985,0.87,3.64,1.75,4.13
9.995,1.19,3.66,0.21,3.85
10.005,1.43,3.46,-1.29,3.96
10.015,1.13,3.24,-2.30,4.13
10.025,0.32,2.20,-2.84,3.61
10.035,-0.29,0.65,-2.53,2.63
10.045,-0.19,0.46,-1.18,1.29
10.055,0.47,2.24,-0.58,2.36
10.064,0.22,4.60,0.11,4.61
10.075,-1.16,6.21,0.77,6.36
10.084,-2.79,6.77,0.89,7.38
10.095,-3.68,7.71,1.30,8.64
10.105,-3.67,7.68,1.21,8.60
10.114,-1.87,1.06,1.16,2.45
10.125,-0.86,-6.18,0.60,6.27
10.134,-1.33,-7.97,-0.18,8.09
10.145,-1.36,-7.62,-0.32,7.74
10.154,-0.83,-8.07,-0.69,8.15
10.164,-0.74,-8.60,-1.07,8.70
10.174,-1.12,-8.68,-1.23,8.83
10.184,-1.54,-8.53,-1.11,8.74
10.194,-1.63,-7.49,-0.94,7.72
10.204,-1.31,-5.75,-0.65,5.93
10.214,-0.79,-3.56,-0.32,3.66
10.224,-0.27,-1.70,0.12,1.73
10.234,0.27,0.46,0.74,0.91
10.244,0.39,3.05,0.76,3.17
10.254,-0.05,6.02,1.03,6.11
10.264,-0.34,9.14,1.47,9.26
10.274,-0.30,10.24,1.37,10.33
10.284,0.22,4.71,0.34,4.73
10.294,-1.40,-2.47,0.41,2.87
10.304,-2.73,-5.41,0.79,6.11
10.314,-2.58,-6.25,-0.44,6.77
10.324,-2.01,-6.32,-1.59,6.82
10.334,-1.18,-5.74,-2.45,6.35
10.344,-0.58,-4.92,-2.92,5.75
10.354,-0.37,-4.21,-2.50,4.91
10.364,-0.38,-3.59,-1.48,3.90
10.374,-0.51,-2.85,-0.84,3.01
10.384,-0.63,-1.94,-0.75,2.18
10.394,-0.71,-0.77,-0.96,1.42
10.404,-0.59,0.47,-1.38,1.57
10.414,-0.24,1.27,-1.93,2.33
10.424,-0.10,1.46,-2.26,2.69
10.434,0.00,0.87,-2.41,2.56
10.444,0.35,0.18,-2.47,2.51
10.454,0.77,0.10,-2.53,2.64
10.464,1.28,0.49,-2.39,2.75
10.474,1.72,0.99,-2.48,3.18
10.484,1.99,1.28,-2.42,3.38
10.494,2.19,1.68,-2.22,3.54
10.504,2.27,2.33,-1.86,3.75
10.514,2.26,3.58,-1.36,4.45
10.524,2.23,5.04,-0.56,5.54
10.534,2.18,6.27,0.40,6.65
10.544,1.47,7.12,1.14,7.36
10.554,0.43,6.94,2.12,7.27
10.564,-0.64,5.99,3.21,6.83
10.574,-1.08,5.53,3.93,6.87
10.584,-0.60,6.04,3.89,7.21
10.594,-0.46,6.78,3.58,7.68
10.604,-0.95,6.70,2.94,7.37
10.614,-1.26,5.37,1.89,5.83
10.624,-1.00,3.37,0.44,3.54
10.633,-0.49,1.68,-0.92,1.98
10.644,-0.02,-0.03,-2.09,2.09
10.654,1.32,-2.62,-3.08,4.25
10.664,3.05,-5.77,-4.04,7.68
10.674,2.73,-7.75,-3.37,8.88
10.683,2.20,-9.04,-3.04,9.79
10.693,2.49,-9.64,-2.27,10.21
10.704,3.52,-9.17,-1.44,9.93
10.713,4.60,-8.54,-1.83,9.88
10.724,4.65,-7.45,-1.79,8.96
10.733,3.97,-3.80,-0.99,5.59
10.743,3.08,0.42,-0.11,3.11
10.754,2.11,4.98,1.31,5.57
10.764,1.50,10.46,1.85,10.73
10.774,0.77,13.75,0.46,13.78
10.783,-1.03,11.84,-0.92,11.92
10.793,-1.96,8.47,0.50,8.71
10.803,-1.88,4.41,3.76,6.10
10.813,-2.62,0.39,5.15,5.79
10.823,-3.27,-1.73,4.91,6.15
10.833,-3.36,-3.25,4.05,6.19
10.843,-2.46,-4.49,2.89,5.88
10.853,-1.13,-4.51,1.90,5.03
10.863,0.10,-4.54,0.51,4.57
10.873,1.12,-4.41,-0.59,4.59
10.883,1.74,-4.30,-2.00,5.05
10.893,1.94,-4.58,-3.61,6.15
10.903,1.63,-4.63,-3.65,6.12
10.913,1.02,-4.36,-1.97,4.89
10.923,0.66,-4.09,-0.13,4.14
10.933,0.54,-3.84,1.67,4.23
10.943,0.48,-3.39,3.02,4.57
10.953,0.40,-3.16,3.31,4.59
10.963,-0.13,-2.40,2.58,3.52
10.973,-0.67,-1.69,1.20,2.18
10.983,-0.81,-1.18,0.07,1.43
10.993,-0.88,-0.04,-1.21,1.50
11.003,-1.14,1.51,-2.54,3.17
11.013,-1.60,3.48,-3.40,5.12
11.023,-1.71,4.96,-4.03,6.62
11.033,-1.13,5.37,-4.54,7.12
11.043,0.08,5.80,-4.55,7.37
11.053,1.20,5.94,-3.14,6.83
11.063,2.16,4.84,-0.06,5.30
11.073,3.20,5.01,3.74,7.02
11.083,4.15,7.44,3.56,9.23
11.093,4.62,8.55,1.07,9.78
11.103,2.60,8.64,-0.90,9.07
11.113,-1.64,8.11,-1.15,8.36
11.123,-5.06,5.10,-0.23,7.18
11.133,-5.29,0.25,0.31,5.31
11.143,-4.29,-1.66,1.11,4.73
11.153,-2.77,-2.59,1.65,4.13
11.163,-1.15,-3.42,0.99,3.74
11.173,0.37,-4.39,-0.03,4.41
11.183,1.22,-5.40,-0.93,5.62
11.193,1.39,-6.20,-1.39,6.50
11.202,1.18,-7.18,-1.40,7.41
11.213,0.89,-8.03,-1.23,8.18
11.223,0.59,-8.43,-0.85,8.49
11.233,0.23,-8.43,-0.32,8.44
11.243,-0.20,-7.98,0.24,7.98
11.253,-0.49,-7.37,0.80,7.43
11.263,-0.45,-5.78,1.00,5.89
11.273,-0.28,-3.31,0.69,3.40
11.282,-0.22,-0.74,0.14,0.78
11.293,-0.72,1.42,-0.61,1.71
11.303,-1.27,3.27,-1.53,3.82
11.313,-1.36,5.31,-2.60,6.07
11.322,-0.96,7.17,-2.62,7.69
11.332,0.03,3.85,-1.18,4.02
11.342,-0.32,-1.71,-0.48,1.81
11.352,-0.78,-4.44,-0.21,4.51
11.363,-0.48,-5.49,-0.08,5.51
11.373,-0.25,-5.15,-0.08,5.15
11.382,-0.27,-4.26,-0.54,4.30
11.392,-0.60,-2.91,-0.89,3.10
11.402,-1.09,-1.74,-0.44,2.10
11.412,-1.26,-0.88,0.10,1.54
11.423,-1.51,0.02,0.31,1.54
11.432,-1.96,0.97,0.30,2.21
11.443,-2.18,1.98,-0.05,2.94
11.452,-2.17,3.03,-0.65,3.78
11.463,-1.87,3.70,-1.20,4.31
11.472,-1.13,3.67,-1.30,4.06
11.482,-0.38,2.96,-1.38,3.29
11.492,0.14,1.79,-1.81,2.55
11.502,0.19,0.64,-2.16,2.26
11.512,0.25,-0.19,-2.32,2.34
11.522,0.74,-0.29,-2.43,2.56
11.532,1.66,0.37,-2.60,3.10
11.542,2.63,1.46,-2.73,4.06
11.552,3.55,2.50,-2.77,5.16
11.562,4.23,3.09,-2.64,5.86
11.572,4.59,3.13,-2.30,6.01
11.582,4.42,3.12,-2.20,5.84
11.592,3.77,3.42,-2.30,5.59
11.602,2.84,3.48,-2.28,5.04
11.612,1.83,3.30,-2.34,4.44
11.622,0.75,3.18,-2.21,3.95
11.632,-0.29,3.20,-1.91,3.73
11.642,-0.90,3.20,-1.40,3.61
11.652,-0.06,2.47,-1.01,2.67
11.662,1.15,1.28,-1.38,2.21
11.672,1.62,0.12,-1.79,2.42
11.682,1.12,-1.08,-0.43,1.62
11.692,0.34,-1.76,1.00,2.05
11.702,0.16,-1.36,1.12,1.77
11.712,0.39,-0.73,1.48,1.69
11.722,0.40,-0.88,2.23,2.43
11.732,0.25,-1.56,2.49,2.95
11.742,0.47,-2.50,2.22,3.37
11.752,1.08,-3.62,2.07,4.31
11.762,1.89,-4.39,2.43,5.36
11.772,2.86,-4.39,2.58,5.84
11.782,3.92,-3.86,2.15,5.91
11.792,4.80,-3.24,1.27,5.93
11.802,5.08,-2.76,0.68,5.82
11.812,4.74,-2.03,0.62,5.20
11.822,4.04,-1.01,0.87,4.25
11.832,3.19,0.03,1.23,3.42
11.842,2.26,0.96,1.68,2.98
11.852,1.27,2.16,1.92,3.15
11.862,0.06,3.74,1.51,4.03
11.872,-1.41,5.17,0.94,5.44
11.882,-2.63,5.98,0.87,6.59
11.892,-3.41,5.65,1.90,6.87
11.902,-3.13,4.23,4.09,6.66
11.912,-2.24,2.95,6.00,7.05
11.922,-1.79,2.33,6.48,7.12
11.932,-1.55,1.66,5.89,6.31
11.941,-1.21,0.66,5.03,5.22
11.951,-1.08,-1.09,4.10,4.38
11.962,-1.65,-3.10,3.10,4.68
11.971,-1.79,-3.44,2.82,4.80
11.982,-1.61,-3.39,2.43,4.47
11.991,-1.62,-3.47,0.91,3.94
12.001,-2.12,-2.58,0.05,3.34
12.012,-2.48,-1.56,-0.31,2.95
12.021,-2.49,-0.96,-1.11,2.89
12.031,-2.09,-0.76,-1.97,2.97
12.041,-1.06,-0.87,-2.62,2.96
12.051,0.13,-0.96,-2.59,2.77
12.061,1.05,-0.76,-2.01,2.39
12.071,1.61,-0.27,-0.99,1.90
12.081,1.88,0.18,0.14,1.90
12.091,2.06,0.35,1.13,2.38
12.101,2.17,0.35,1.85,2.88
12.111,2.26,0.23,2.14,3.12
12.121,2.27,-0.02,2.10,3.09
12.131,2.27,-0.47,1.94,3.03
12.141,2.04,-1.07,1.98,3.04
12.151,1.41,-1.05,1.73,2.46
12.161,0.82,-0.14,1.19,1.45
12.171,1.00,0.10,0.57,1.15
12.181,1.49,-0.13,0.11,1.50
12.191,1.83,-0.68,-0.25,1.97
12.201,2.00,-1.50,-0.70,2.60
12.211,2.02,-2.25,-1.19,3.25
12.221,2.18,-2.80,-1.86,4.01
12.231,2.69,-3.41,-2.26,4.90
12.241,3.26,-3.79,-2.37,5.53
12.251,3.88,-3.78,-2.55,5.98
12.261,4.36,-3.69,-2.66,6.30
12.271,4.84,-3.52,-2.71,6.57
12.281,5.29,-3.59,-2.05,6.71
12.291,5.09,-3.54,-0.64,6.23
12.301,4.21,-2.60,0.32,4.96
12.311,1.69,-1.05,1.12,2.28
12.321,-2.55,2.85,2.69,4.67
12.331,-5.79,9.51,5.44,12.39
12.341,-7.27,14.79,7.21,17.99
12.351,-8.08,16.13,5.34,18.81
12.361,-6.79,8.01,5.32,11.77
12.371,-3.93,-0.25,5.14,6.47
12.381,-2.77,-3.06,3.23,5.24
12.391,-3.03,-2.40,2.07,4.38
12.401,-4.14,-1.72,1.00,4.60
12.411,-5.89,-3.67,0.47,6.96
12.421,-7.20,-5.05,-0.63,8.82
12.431,-7.51,-4.70,-2.31,9.15
12.441,-7.44,-3.06,-3.27,8.68
12.451,-7.04,-0.78,-4.17,8.22
12.461,-6.12,1.02,-4.92,7.92
12.471,-4.71,2.13,-5.63,7.64
12.481,-3.30,2.31,-5.22,6.60
12.491,-2.23,1.94,-4.47,5.36
12.501,-1.41,1.29,-4.40,4.79
12.511,-0.12,-0.19,-4.52,4.53
12.521,1.49,-1.71,-4.43,4.98
12.531,3.08,-2.27,-4.04,5.56
12.541,3.97,-2.35,-3.10,5.56
12.550,3.18,-1.89,-2.27,4.34
12.561,1.67,-1.16,-2.53,3.25
12.570,0.66,-0.78,-3.16,3.32
12.581,0.13,-0.51,-3.84,3.88
12.591,-0.09,-0.50,-4.27,4.30
12.600,0.28,0.08,-4.71,4.72
12.610,1.01,0.76,-4.29,4.47
12.620,1.54,0.71,-3.38,3.78
12.630,1.93,0.26,-3.43,3.95
12.640,2.67,-0.24,-3.86,4.70
12.650,3.45,-0.60,-4.39,5.62
12.661,4.16,-0.86,-5.05,6.59
12.670,4.91,-1.06,-5.58,7.51
12.681,5.78,-1.30,-5.75,8.25
12.690,6.70,-1.73,-5.45,8.80
12.700,7.31,-2.58,-4.69,9.06
12.710,7.45,-3.68,-3.72,9.11
12.721,7.31,-4.13,-2.79,8.85
12.730,7.07,-3.39,-2.24,8.15
12.740,6.68,-1.91,-1.91,7.21
12.750,6.34,-0.51,-1.52,6.54
12.760,6.21,0.70,-1.23,6.36
12.770,6.06,1.56,-0.95,6.33
12.780,5.28,1.50,-0.33,5.50
12.790,3.62,0.68,0.58,3.73
12.800,1.73,0.18,1.46,2.27
12.810,-0.01,0.65,2.00,2.10
12.820,-1.86,1.91,2.16,3.43
12.830,-3.80,3.17,1.87,5.29
12.840,-4.63,2.12,0.50,5.12
12.850,-3.59,-0.05,-1.83,4.03
12.860,-2.02,0.12,-3.41,3.97
12.870,-1.02,2.27,0.20,2.50
12.880,-0.64,4.23,-0.73,4.34
12.890,-0.49,6.71,-2.75,7.27
12.900,0.08,9.44,-0.58,9.46
12.910,3.47,10.38,2.78,11.29
12.920,8.14,8.50,6.49,13.44
12.930,10.04,4.80,9.18,14.43
12.941,8.38,3.08,8.32,12.20
12.950,5.61,2.76,5.42,8.28
12.960,4.20,2.41,2.79,5.59
12.970,3.90,0.80,0.72,4.04
12.980,3.67,-1.70,-0.74,4.12
12.990,3.23,-3.36,-1.57,4.91
13.000,2.73,-3.66,-1.92,4.96
13.010,1.70,-1.82,-2.82,3.77
13.020,0.91,-0.93,-3.94,4.15
13.030,0.32,-1.43,-4.64,4.86
13.040,-0.06,-1.95,-3.68,4.17
13.050,-0.05,-1.94,-1.25,2.31
13.060,0.28,-1.91,1.25,2.30
13.070,0.91,-2.10,3.22,3.95
13.080,1.49,-2.02,4.54,5.19
13.090,1.54,-0.87,4.93,5.24
13.100,1.29,0.66,4.10,4.35
13.110,1.56,1.10,2.32,3.00
13.120,1.43,1.33,-0.08,1.96
13.130,0.85,1.58,-2.68,3.23
13.140,0.15,1.87,-4.77,5.12
13.150,-0.39,1.84,-5.52,5.83
13.160,-0.52,1.72,-4.64,4.97
13.170,-0.29,1.67,-3.40,3.80
13.180,-0.09,1.91,-2.14,2.87
13.190,-0.08,2.85,-0.47,2.89
13.200,-0.08,4.91,1.44,5.12
13.210,0.30,7.96,3.27,8.61
13.219,0.67,10.14,3.45,10.74
13.230,1.16,10.63,1.38,10.79
13.240,0.85,9.99,-0.63,10.05
13.249,-1.44,9.00,-0.50,9.13
13.260,-3.53,5.66,0.51,6.70
13.269,-3.45,1.69,1.52,4.13
13.280,-2.67,-1.34,1.73,3.46
13.290,-2.81,-3.45,1.36,4.65
13.300,-3.15,-4.38,0.96,5.48
13.309,-2.98,-4.64,0.52,5.53
13.319,-2.26,-5.11,0.14,5.59
13.329,-1.31,-5.70,-0.20,5.86
13.339,-0.48,-6.19,-0.27,6.22
13.349,0.16,-6.49,-0.24,6.49
13.359,0.62,-6.33,-0.02,6.36
13.369,0.96,-5.81,0.24,5.90
13.380,1.13,-4.83,0.61,5.00
13.389,1.07,-3.71,0.76,3.93
13.399,1.15,-1.93,0.33,2.27
13.409,1.90,0.90,-0.78,2.25
13.419,3.19,4.04,-1.24,5.29
13.429,4.11,6.05,-1.29,7.43
13.439,3.85,7.89,-0.54,8.79
13.449,2.89,7.68,0.77,8.24
13.459,1.74,2.24,0.77,2.94
13.469,-0.13,-1.27,0.85,1.53
13.479,-1.10,-1.84,1.41,2.57
13.489,-0.59,-1.53,1.57,2.27
13.499,0.39,-1.42,1.19,1.89
13.509,0.79,-1.24,0.34,1.51
13.519,0.69,-1.14,-0.21,1.35
13.529,0.27,-1.13,-0.29,1.20
13.539,-0.37,-1.19,-0.18,1.26
13.549,-1.17,-1.39,0.19,1.83
13.559,-1.67,-1.39,0.42,2.21
13.569,-1.89,-1.65,0.23,2.52
13.579,-1.74,-2.32,-0.42,2.93
13.589,-1.19,-3.03,-1.32,3.51
13.599,-0.51,-3.68,-2.10,4.27
13.609,0.05,-4.22,-2.51,4.91
13.619,0.50,-4.59,-2.72,5.35
13.629,0.85,-4.58,-2.83,5.45
13.639,1.26,-4.18,-2.96,5.27
13.649,1.61,-3.51,-2.93,4.85
13.659,1.78,-2.65,-2.53,4.07
13.669,1.85,-1.57,-2.02,3.16
13.679,1.98,-0.23,-1.33,2.40
13.689,1.99,1.13,-0.68,2.39
13.699,1.81,2.36,-0.10,2.97
13.709,1.57,3.62,0.38,3.96
13.719,1.27,4.87,1.10,5.15
13.729,0.75,5.77,1.75,6.08
13.739,-0.15,6.05,1.68,6.28
13.749,-1.15,6.06,1.30,6.31
13.759,-1.88,5.97,0.95,6.33
13.768,-2.13,6.05,0.87,6.47
13.779,-0.78,6.28,1.26,6.46
13.789,0.91,6.42,2.04,6.80
13.799,1.14,6.30,2.74,6.97
13.808,0.90,5.87,2.66,6.50
13.818,0.52,5.20,1.56,5.46
13.829,-0.22,4.07,0.26,4.08
13.839,-1.10,2.51,-0.72,2.83
13.849,-1.79,1.31,-1.10,2.48
13.858,-1.89,0.20,-0.97,2.14
13.868,-0.28,-2.52,-1.18,2.79
13.879,1.38,-6.71,-1.40,6.99
13.889,1.84,-8.79,-0.72,9.01
13.899,2.62,-9.09,0.13,9.46
13.908,2.63,-9.01,0.59,9.41
13.918,2.09,-7.77,0.43,8.06
13.929,1.88,-6.04,-0.38,6.34
13.939,2.44,-3.90,-0.68,4.65
13.948,2.32,-1.18,-1.07,2.82
13.958,2.28,2.86,-0.39,3.68
13.968,3.00,6.40,-0.16,7.08
13.979,3.90,8.72,-0.87,9.59
13.988,3.88,8.17,-1.13,9.11
13.998,2.46,5.78,0.94,6.35
14.008,0.83,4.26,3.68,5.69
14.018,-0.72,1.89,4.93,5.33
14.028,-1.77,-0.90,4.70,5.10
14.038,-1.92,-2.67,4.11,5.27
14.048,-1.30,-3.74,2.95,4.94
14.058,-0.48,-4.25,1.61,4.57
14.068,0.28,-4.22,0.52,4.26
14.078,0.49,-4.14,-0.65,4.22
14.088,0.26,-3.92,-2.09,4.45
14.098,-0.07,-3.67,-3.16,4.84
14.108,-0.45,-3.53,-2.74,4.49
14.118,-0.68,-3.42,-1.06,3.64
14.128,-0.69,-3.27,0.26,3.35
14.138,-0.76,-2.32,1.69,2.97
14.148,-0.47,-1.40,3.48,3.78
14.158,0.23,-0.88,4.06,4.16
14.168,0.69,0.16,3.65,3.71
14.178,0.96,0.78,2.45,2.74
14.188,1.00,0.13,0.93,1.37
14.198,0.77,-0.20,-0.24,0.83
14.208,0.66,-0.34,-1.24,1.44
14.218,0.50,-0.61,-2.06,2.20
14.228,0.36,-0.71,-2.72,2.84
14.238,-0.01,-0.55,-3.06,3.11
14.248,-0.56,0.19,-3.08,3.14
14.258,-0.97,1.27,-2.50,2.97
14.268,-0.99,2.40,-1.46,2.97
14.278,-0.61,3.89,-0.67,4.00
14.288,0.10,5.55,-0.28,5.56
14.298,1.01,7.63,0.52,7.71
14.308,2.31,10.09,1.77,10.50
14.318,3.58,11.53,2.20,12.27
14.328,4.34,11.35,1.22,12.21
14.338,4.02,9.72,-0.11,10.52
14.348,1.71,5.45,-0.51,5.73
14.358,-1.46,2.23,-1.26,2.94
14.368,-3.58,0.50,-1.77,4.03
14.378,-4.28,-0.89,-1.38,4.59
14.387,-4.42,-1.48,-0.51,4.69
14.398,-3.96,-1.55,0.07,4.25
14.408,-2.57,-2.13,0.16,3.34
14.417,-0.87,-2.68,0.45,2.85
14.428,0.09,-2.54,0.84,2.67
14.437,0.57,-2.56,1.17,2.87
14.448,0.72,-2.71,1.53,3.19
14.458,0.83,-2.88,1.61,3.40
14.467,0.92,-3.42,1.11,3.71
14.478,0.93,-4.08,0.82,4.27
14.488,0.79,-4.57,0.88,4.72
14.498,0.55,-4.55,0.85,4.66
14.508,0.17,-3.16,0.43,3.20
14.517,-0.35,-0.99,-0.20,1.07
14.527,-0.95,1.52,-0.08,1.80
14.538,-1.40,4.17,0.74,4.46
14.548,-1.09,6.69,0.55,6.80
14.558,-0.28,8.47,-0.13,8.47
14.567,0.73,5.27,0.21,5.33
14.578,0.59,0.41,-0.06,0.72
14.587,-0.58,-1.96,0.08,2.05
14.598,-1.34,-3.62,0.23,3.87
14.607,-1.18,-5.07,-0.72,5.26
14.617,-0.35,-5.70,-1.91,6.02
14.627,0.31,-5.83,-2.69,6.43
14.637,0.33,-6.21,-3.01,6.91
14.647,-0.68,-7.08,-2.86,7.67
14.657,-1.99,-7.57,-1.96,8.07
14.667,-2.35,-6.81,-0.74,7.25
14.677,-2.14,-5.22,-0.02,5.64
14.687,-1.66,-3.30,0.09,3.70
14.697,-1.05,-1.49,-0.27,1.84
14.707,-0.62,-0.30,-0.64,0.94
14.717,-0.43,0.34,-0.82,0.99
14.727,-0.57,0.88,-0.96,1.43
14.737,-0.74,1.35,-1.18,1.94
14.747,-0.52,1.59,-1.56,2.28
14.757,0.00,1.51,-1.75,2.31
14.767,0.55,1.08,-1.71,2.10
14.777,0.83,0.85,-1.61,2.00
14.787,1.21,1.08,-1.20,2.02
14.797,1.79,1.78,-0.87,2.67
14.807,2.49,2.86,-0.97,3.91
14.817,2.86,4.09,-0.94,5.08
14.827,3.13,5.38,-0.94,6.30
14.837,3.25,6.29,-0.67,7.11
14.847,3.23,7.00,-0.00,7.70
14.857,2.91,8.09,0.62,8.62
14.867,2.31,9.33,0.60,9.63
14.877,2.13,9.59,0.65,9.85
14.887,1.69,8.17,1.78,8.53
14.897,0.82,6.25,2.56,6.80
14.907,-0.08,4.17,2.57,4.90
14.917,-0.62,1.63,1.70,2.44
14.927,-0.11,-2.15,0.23,2.16
14.937,0.48,-5.27,0.15,5.29
14.947,0.07,-7.23,-0.44,7.24
14.957,-0.47,-8.82,-1.22,8.92
14.967,-0.92,-9.91,-1.59,10.08
14.977,-0.47,-9.89,-1.90,10.08
14.987,0.52,-8.09,-1.85,8.32
14.997,1.16,-6.47,-1.82,6.83
15.007,0.97,-4.54,-1.66,4.93
15.017,-0.22,-1.91,-1.09,2.21
15.027,-1.85,2.07,-0.24,2.79
15.037,-2.58,7.02,-0.48,7.49
15.047,-1.66,10.98,-2.27,11.33
15.057,-0.15,10.99,-1.81,11.14
15.067,1.05,9.60,1.78,9.82
15.077,0.53,6.21,5.53,8.33
15.086,-1.35,1.72,6.95,7.29
15.097,-2.39,-1.48,7.07,7.61
15.107,-1.91,-2.95,5.76,6.75
15.117,-1.18,-2.75,3.68,4.74
15.127,-0.69,-1.78,1.71,2.56
15.136,0.16,-1.37,0.54,1.48
15.146,1.01,-1.47,0.15,1.79
15.157,1.49,-1.99,-0.39,2.52
15.166,1.76,-3.07,-1.21,3.74
15.177,1.49,-4.05,-1.76,4.66
15.186,0.93,-4.27,-1.30,4.56
15.196,0.51,-3.45,0.08,3.49
15.206,0.37,-2.77,1.42,3.14
15.216,0.18,-2.46,2.26,3.34
15.226,-0.08,-2.25,2.50,3.37
15.236,-0.28,-1.97,2.15,2.94
15.247,-0.45,-1.72,1.26,2.18
15.256,-0.67,-1.51,0.19,1.67
15.266,-1.02,-1.10,-0.66,1.64
15.276,-1.60,-0.50,-1.47,2.23
15.286,-2.26,0.17,-2.16,3.14
15.297,-2.95,0.91,-2.59,4.03
15.306,-3.29,1.63,-2.71,4.56
15.316,-3.07,2.38,-2.39,4.56
15.326,-2.68,3.17,-1.84,4.54
15.336,-2.34,4.33,-1.10,5.04
15.346,-1.93,4.89,0.34,5.27
15.356,-1.72,5.93,2.50,6.66
15.366,-2.10,7.96,2.73,8.68
15.376,-1.64,9.07,-0.23,9.22
15.386,-0.77,9.53,-2.26,9.83
15.396,-2.07,8.66,-1.04,8.97
15.406,-4.37,3.93,0.83,5.93
15.416,-4.98,-0.70,1.00,5.13
15.426,-3.20,-2.32,0.33,3.97
15.436,-0.76,-2.74,-0.05,2.85
15.446,0.86,-3.09,0.43,3.23
15.456,1.96,-3.47,0.41,4.01
15.466,2.52,-4.31,0.00,4.99
15.476,2.58,-4.74,-0.09,5.40
15.486,2.39,-4.68,0.37,5.26
15.496,2.72,-4.72,0.71,5.50
15.506,3.18,-4.43,0.68,5.50
15.516,3.33,-4.26,0.57,5.43
15.526,3.00,-3.82,0.51,4.88
15.536,2.37,-2.49,0.40,3.46
15.546,1.37,-0.81,0.06,1.59
15.556,0.17,0.26,-0.50,0.59
15.566,-1.28,1.36,-1.02,2.13
15.576,-2.87,2.62,-0.96,4.01
15.586,-4.12,4.14,-0.74,5.88
15.596,-4.06,4.53,-0.58,6.11
15.606,-2.17,-0.39,-0.18,2.22
15.616,-1.11,-3.26,0.28,3.46
15.626,-0.78,-3.77,0.80,3.94
15.636,-0.97,-4.62,0.40,4.74
15.646,-1.03,-4.63,-0.53,4.78
15.656,0.80,-3.22,-2.05,3.90
15.666,2.11,-2.90,-2.99,4.67
15.676,1.33,-3.73,-2.37,4.62
15.685,-0.50,-4.42,-0.97,4.55
15.696,-1.56,-4.21,-0.04,4.49
15.706,-1.73,-3.45,0.31,3.87
15.716,-1.32,-2.21,0.24,2.59
15.726,-0.64,-0.64,-0.47,1.02
15.735,0.27,0.69,-0.89,1.16
15.745,1.30,1.14,-1.19,2.10
15.756,1.56,1.48,-1.28,2.50
15.766,0.66,1.41,-1.01,1.86
15.776,0.42,1.07,-2.12,2.42
15.785,0.72,0.88,-2.14,2.42
15.796,0.87,0.72,-1.86,2.18
15.806,0.92,0.38,-1.39,1.71
15.816,0.66,-0.45,-0.93,1.23
15.825,0.93,-1.08,-1.58,2.13
15.835,1.43,-0.93,-1.93,2.58
15.845,1.75,-0.69,-1.59,2.46
15.855,1.82,-0.47,-0.83,2.06
15.865,2.06,-0.33,-0.26,2.10
15.875,2.27,-0.12,-0.21,2.28
15.885,2.40,0.02,-0.45,2.44
15.895,2.09,-0.15,-0.67,2.20
15.905,1.46,-0.49,-0.91,1.79
15.915,0.70,-0.36,-0.87,1.17
15.925,0.18,0.19,-0.64,0.69
15.935,-0.14,0.78,-0.24,0.83
15.945,-0.41,1.24,0.07,1.31
15.955,-0.73,1.70,0.32,1.88
15.965,-1.00,2.47,0.56,2.72
15.975,-1.22,3.64,0.87,3.94
15.985,-1.28,5.06,1.20,5.36
15.995,-1.20,6.52,1.52,6.80
16.005,-1.18,7.78,1.40,7.99
16.015,-1.56,8.72,1.15,8.93
16.025,-2.31,9.32,0.43,9.61
16.035,-3.08,9.60,-0.84,10.12
16.045,-3.78,9.07,-0.49,9.83
16.055,-4.19,7.70,0.79,8.80
16.065,-4.03,5.50,1.52,6.99
16.075,-3.39,3.20,1.58,4.92
16.085,-2.62,1.28,1.74,3.40
16.095,-1.80,-0.34,2.14,2.82
16.105,-0.52,-1.53,2.10,2.65
16.115,1.44,-4.70,1.05,5.03
16.125,2.72,-8.53,0.55,8.97
16.135,3.63,-9.92,-0.09,10.57
16.145,3.65,-9.60,-1.28,10.35
16.155,3.57,-8.72,-0.91,9.47
16.165,2.78,-5.90,-1.25,6.64
16.175,1.88,-1.77,-2.37,3.51
16.185,1.83,0.88,-2.24,3.02
16.195,2.07,3.99,-0.83,4.57
16.205,2.29,7.64,1.28,8.07
16.215,2.46,8.89,2.63,9.59
16.225,2.15,7.15,4.01,8.47
16.235,1.28,4.40,5.64,7.26
16.245,0.35,1.78,6.57,6.82
16.255,-0.77,-1.22,5.93,6.10
16.265,-1.66,-3.40,3.91,5.44
16.275,-2.05,-4.74,2.02,5.54
16.285,-1.91,-5.23,1.09,5.68
16.295,-1.14,-5.75,0.83,5.92
16.305,-0.23,-6.30,0.51,6.32
16.315,0.23,-6.44,-0.00,6.44
16.325,0.57,-6.26,-1.18,6.40
16.335,0.68,-5.76,-3.18,6.61
16.344,0.59,-5.22,-4.03,6.62
16.355,0.32,-4.69,-3.41,5.81
16.365,-0.26,-3.66,-1.46,3.95
16.375,-0.38,-2.62,0.73,2.74
16.385,0.11,-1.89,2.89,3.46
16.395,0.56,-1.17,4.90,5.07
16.404,0.74,1.11,4.60,4.79
16.414,1.08,4.46,2.32,5.14
16.424,1.62,3.93,0.46,4.27
16.434,1.72,2.71,-0.67,3.28
16.444,1.80,2.43,-2.00,3.62
16.454,1.49,1.70,-3.28,3.98
16.464,1.10,0.53,-4.10,4.27
16.474,1.12,-0.82,-4.31,4.53
16.484,1.54,-1.63,-3.68,4.31
16.495,2.13,-1.65,-2.51,3.69
16.504,2.21,-1.10,-1.20,2.74
16.515,1.86,-0.01,1.03,2.13
16.524,1.74,2.71,3.38,4.67
16.534,1.45,7.38,4.12,8.58
16.544,0.80,12.33,2.14,12.54
16.554,-0.57,15.46,0.44,15.47
16.565,-3.32,17.20,0.62,17.53
16.575,-4.82,15.17,0.03,15.92
16.584,-2.07,5.66,-0.04,6.03
16.594,-0.75,0.17,0.72,1.05
16.604,-1.47,-2.27,0.97,2.87
16.614,-2.15,-3.70,0.41,4.30
16.624,-2.09,-4.21,-0.01,4.70
16.634,-1.73,-4.09,-0.17,4.44
16.644,-1.41,-4.48,-0.27,4.70
16.654,-1.41,-5.10,-0.13,5.29
16.664,-1.40,-5.47,0.20,5.65
16.674,-1.33,-5.41,0.52,5.60
16.684,-1.20,-5.09,0.92,5.31
16.694,-1.13,-4.66,1.43,5.00
16.704,-1.11,-3.98,1.86,4.53
16.714,-0.83,-3.04,1.73,3.60
16.724,-0.32,-1.63,1.01,1.95
16.734,0.10,-0.01,-0.02,0.10
16.744,0.34,1.19,-0.60,1.37
16.754,0.19,1.44,-0.26,1.48
16.764,-0.25,0.51,0.38,0.68
16.774,-0.55,-0.16,0.18,0.60
16.784,-0.54,-0.05,-0.05,0.55
16.794,-0.69,-0.48,0.11,0.85
16.804,-0.48,-1.01,-0.19,1.14
16.814,-0.15,-0.68,-0.64,0.94
16.824,0.06,-0.43,-0.73,0.85
16.834,0.06,-1.37,-0.54,1.47
16.844,0.09,-2.67,-0.05,2.67
16.854,0.02,-3.33,0.14,3.34
16.864,-0.40,-3.18,0.23,3.21
16.874,-0.71,-3.10,0.15,3.19
16.884,-0.74,-3.05,0.30,3.16
16.894,-0.68,-2.88,0.39,2.99
16.904,-0.46,-2.64,0.25,2.69
16.914,-0.14,-2.33,0.11,2.33
16.924,0.11,-2.35,0.00,2.35
16.934,0.28,-2.27,-0.15,2.29
16.944,0.23,-1.86,-0.39,1.92
16.954,0.06,-1.27,-0.67,1.44
16.964,-0.11,-0.52,-0.67,0.86
16.974,-0.20,0.30,-0.41,0.55
16.984,-0.38,0.95,-0.02,1.02
16.994,-0.75,1.39,-0.13,1.58
17.003,-1.29,1.34,-1.06,2.14
17.014,-1.72,0.71,-2.19,2.87
17.023,-1.66,-0.43,-3.04,3.49
17.034,-1.13,-1.75,-3.23,3.84
17.044,-0.30,-2.56,-2.82,3.82
17.054,0.48,-2.23,-2.09,3.10
17.064,1.23,-1.18,-1.65,2.37
17.073,1.88,-0.00,-1.00,2.13
17.083,2.34,0.85,-0.65,2.58
17.093,2.40,1.23,-0.74,2.80
17.103,2.00,1.54,-1.08,2.75
17.114,1.68,1.86,-1.15,2.76
17.123,1.40,1.95,-0.73,2.51
17.134,1.10,1.94,-0.32,2.25
17.143,1.01,2.05,-0.06,2.28
17.153,0.68,2.21,0.20,2.32
17.163,0.15,2.60,0.37,2.63
17.173,-0.16,2.81,0.70,2.90
17.183,0.12,2.71,1.02,2.90
17.193,0.52,2.84,1.14,3.10
17.203,0.42,3.51,1.01,3.68
17.213,0.12,4.25,0.87,4.34
17.223,-0.00,5.10,0.41,5.12
17.233,-0.07,6.10,-0.60,6.13
17.243,-0.41,7.12,-1.44,7.28
17.253,-1.02,7.81,-1.85,8.10
17.263,-1.72,7.51,-1.59,7.87
17.273,-2.25,6.23,-1.01,6.70
17.283,-2.54,4.36,-0.19,5.05
17.293,-2.42,2.19,0.56,3.31
17.303,-1.85,0.35,1.05,2.15
17.313,-1.15,-0.75,1.43,1.98
17.323,-0.42,-1.57,1.70,2.36
17.333,0.37,-2.26,1.86,2.95
17.343,1.30,-3.17,1.13,3.61
17.353,2.47,-5.92,-0.22,6.42
17.363,3.84,-7.97,-0.94,8.89
17.373,4.68,-8.78,-0.89,9.99
17.383,4.31,-8.74,-1.49,9.85
17.393,3.33,-7.01,-0.64,7.78
17.403,2.37,-3.18,-0.55,4.00
17.413,1.63,1.00,-1.43,2.39
17.423,1.44,4.27,-1.25,4.68
17.433,1.35,6.78,-0.64,6.95
17.443,1.09,8.65,0.01,8.72
17.453,0.63,8.58,1.67,8.76
17.463,-0.04,7.83,3.28,8.49
17.473,-1.24,5.82,4.01,7.18
17.483,-2.69,2.37,4.25,5.55
17.493,-4.09,0.18,4.30,5.94
17.503,-4.82,-1.42,3.95,6.39
17.513,-4.38,-2.63,3.22,6.04
17.523,-3.16,-3.39,2.57,5.30
17.533,-1.73,-3.97,1.77,4.68
17.542,-0.43,-4.45,0.64,4.52
17.553,0.64,-4.67,-0.16,4.71
17.563,0.79,-4.01,-1.06,4.23
17.573,0.56,-3.55,-1.94,4.09
17.583,0.54,-3.72,-2.06,4.28
17.593,0.49,-3.61,-1.19,3.83
17.603,0.39,-3.06,0.21,3.10
17.613,0.18,-2.16,1.84,2.85
17.623,0.32,-1.60,3.44,3.81
17.633,0.82,-1.72,4.15,4.57
17.642,1.08,-2.03,3.71,4.36
17.653,1.02,-2.38,2.58,3.65
17.662,0.61,-2.39,1.13,2.71
17.673,-0.17,-1.79,0.09,1.80
17.682,-0.58,-1.91,-0.81,2.15
17.693,-0.42,-2.24,-1.63,2.80
17.702,-0.28,-2.31,-2.04,3.09
17.712,-0.21,-2.30,-2.19,3.18
17.723,-0.34,-1.51,-1.76,2.34
17.732,-0.42,-0.26,-1.15,1.25
17.743,-0.48,0.76,-0.87,1.25
17.753,-0.21,0.88,0.25,0.94
17.762,0.71,1.73,0.71,2.00
17.772,1.76,3.60,-0.75,4.08
17.782,2.78,3.65,-0.24,4.59
17.792,3.54,3.32,0.57,4.89
17.802,3.26,3.64,0.65,4.92
17.812,2.20,4.72,-0.12,5.21
17.822,1.63,5.64,-1.19,5.99
17.832,1.29,5.59,-2.02,6.09
17.842,0.47,4.68,-1.79,5.03
17.852,-0.36,3.61,-1.10,3.80
17.862,-0.39,4.17,-0.93,4.29
17.872,0.01,6.34,-1.74,6.57
17.882,-0.01,8.15,-2.01,8.39
17.892,-0.43,7.23,-1.50,7.40
17.902,-0.11,3.23,-0.06,3.23
17.912,-0.13,1.24,0.92,1.55
17.922,-0.54,0.73,0.96,1.32
17.932,-0.71,0.62,0.88,1.29
17.942,-0.69,0.72,1.65,1.93
17.952,-0.65,0.51,1.78,1.96
17.962,-0.94,-0.51,1.18,1.59
17.972,-1.47,-2.05,0.74,2.63
17.982,-1.66,-4.12,0.16,4.44
17.992,-1.68,-5.33,0.84,5.65
18.002,-1.52,-5.91,1.40,6.26
18.012,-1.51,-6.15,1.18,6.44
18.022,-1.66,-6.32,0.50,6.55
18.032,-1.88,-6.38,-0.33,6.65
18.042,-1.95,-5.73,-0.45,6.07
18.052,-1.69,-4.81,-0.50,5.13
18.062,-1.27,-3.65,-0.15,3.86
18.072,-1.12,-2.72,-0.49,2.98
18.082,-0.68,-1.19,0.31,1.40
18.092,0.01,0.23,1.62,1.64
18.102,0.31,0.47,0.93,1.09
18.112,-0.00,0.59,0.20,0.62
18.122,-0.81,0.72,0.06,1.08
18.132,-1.20,0.81,-0.18,1.46
18.142,-1.11,0.61,-0.23,1.28
18.152,-0.72,0.10,-0.04,0.73
18.162,-0.53,-0.82,-0.12,0.99
18.172,-0.46,-1.22,0.04,1.30
18.182,-0.38,-0.95,0.76,1.28
18.192,-0.50,-0.84,1.08,1.46
18.202,-0.46,-1.03,1.30,1.72
18.212,-0.13,-1.05,1.81,2.10
18.222,1.11,-1.79,1.78,2.76
18.232,1.69,-2.25,0.94,2.97
18.242,0.79,-1.72,-0.08,1.90
18.252,-0.34,-0.52,-0.79,1.01
18.261,-1.36,0.70,-1.20,1.95
18.272,-1.77,0.47,-1.29,2.24
18.282,-1.31,-0.51,-0.74,1.59
18.292,-1.31,-0.35,-0.82,1.58
18.302,-1.49,0.18,-1.04,1.82
18.312,-1.28,0.31,-0.87,1.58
18.322,-1.01,0.06,-0.66,1.21
18.332,-0.58,-0.27,-0.52,0.82
18.342,-0.00,-0.42,-0.59,0.72
18.351,0.44,-0.32,-1.01,1.15
18.361,0.57,-0.24,-1.26,1.40
18.372,0.48,-0.46,-1.24,1.41
18.381,0.41,-0.62,-0.86,1.14
18.392,0.46,-0.44,-0.52,0.82
18.401,0.67,-0.39,-0.31,0.84
18.411,0.90,-0.61,-0.30,1.13
18.421,0.89,-0.83,-0.52,1.32
18.431,0.52,-1.04,-1.16,1.64
18.441,0.06,-1.24,-1.67,2.08
18.451,-0.24,-1.22,-1.71,2.11
18.461,-0.26,-0.80,-1.65,1.85
18.471,-0.01,-0.13,-1.76,1.76
18.481,0.32,0.36,-1.89,1.95
18.491,0.61,0.76,-1.88,2.12
18.501,1.03,1.24,-1.71,2.35
18.511,1.48,1.69,-1.41,2.65
18.521,1.87,1.89,-1.22,2.93
18.531,2.08,2.25,-1.14,3.27
18.541,2.16,2.79,-0.88,3.64
18.551,2.24,3.36,-0.25,4.05
18.561,1.88,4.29,1.07,4.80
18.571,1.56,4.76,1.60,5.26
18.581,1.23,5.19,1.87,5.65
18.591,0.63,6.05,1.83,6.35
18.601,0.05,6.83,0.89,6.89
18.611,-0.78,7.37,-0.45,7.43
18.621,-1.91,7.64,-1.56,8.03
18.631,-3.55,7.69,-1.09,8.54
18.641,-4.72,6.84,-0.27,8.32
18.651,-5.07,5.03,0.66,7.17
18.661,-4.54,1.93,1.60,5.19
18.671,-3.50,-0.53,1.93,4.03
18.681,-2.36,-2.14,1.68,3.61
18.691,-1.29,-2.90,1.54,3.53
18.701,0.01,-3.18,1.14,3.37
18.711,1.11,-3.43,0.89,3.72
18.721,2.17,-4.50,0.17,5.00
18.731,3.09,-7.31,-1.64,8.11
18.741,3.88,-8.86,-1.17,9.74
18.751,3.87,-7.36,-0.73,8.35
18.761,3.63,-3.96,-0.24,5.37
18.771,3.64,-0.90,-0.29,3.76
18.781,3.70,1.07,-0.96,3.97
18.791,3.74,2.87,-1.38,4.92
18.801,3.28,4.07,-1.03,5.33
18.811,2.55,5.27,0.36,5.86
18.821,2.35,5.22,2.03,6.07
18.831,1.69,4.75,3.38,6.07
18.841,0.15,4.37,4.08,5.98
18.851,-1.67,2.91,4.05,5.26
18.861,-3.23,0.48,3.51,4.80
18.871,-3.86,-1.39,2.76,4.95
18.880,-3.58,-2.37,2.39,4.91
18.891,-2.60,-3.74,2.88,5.38
18.901,-0.65,-3.72,1.77,4.18
18.911,0.31,-1.48,-0.08,1.51
18.921,0.52,-0.63,-1.34,1.57
18.931,0.74,-1.31,-2.48,2.90
18.941,0.49,-1.98,-3.15,3.76
18.951,0.22,-2.38,-2.80,3.68
18.960,-0.11,-2.30,-1.50,2.75
18.970,-0.27,-2.03,0.01,2.05
18.980,-0.41,-1.96,1.23,2.35
18.990,-0.30,-2.38,2.48,3.45
19.000,-0.02,-3.02,3.67,4.75
19.010,0.33,-2.89,3.74,4.74
19.020,0.42,-2.36,2.78,3.67
19.031,0.37,-2.65,1.77,3.21
19.040,-0.24,-2.33,0.95,2.53
19.051,-0.61,-2.20,0.50,2.34
19.060,-0.44,-2.20,0.07,2.24
19.070,-0.22,-1.84,-0.30,1.88
19.080,-0.09,-1.75,-0.64,1.87
19.090,-0.27,-1.98,-1.00,2.24
19.100,-0.65,-2.11,-1.38,2.61
19.110,-1.02,-1.39,-1.74,2.45
19.120,-1.13,-0.11,-2.11,2.39
19.130,-1.44,1.17,-1.31,2.27
19.140,-0.14,1.89,-1.06,2.17
19.150,1.86,2.87,-1.12,3.60
19.160,3.74,2.72,-0.75,4.69
19.170,4.73,1.88,0.11,5.09
19.180,4.44,1.82,0.84,4.88
19.190,3.56,2.29,0.80,4.31
19.200,2.63,3.08,0.12,4.05
19.210,1.26,4.02,-0.95,4.32
19.220,-0.12,4.96,-2.06,5.37
19.230,-0.94,5.51,-1.64,5.82
19.240,-1.59,4.92,-0.17,5.17
19.250,-2.35,3.74,1.08,4.55
19.260,-2.44,3.70,1.40,4.65
19.270,-1.80,4.89,0.76,5.26
19.280,-1.00,5.71,0.44,5.82
19.290,-0.37,4.93,0.34,4.95
19.300,-0.40,2.79,-0.24,2.83
19.310,-0.31,0.91,-0.18,0.98
19.320,-0.34,0.63,0.20,0.74
19.330,-0.40,0.49,0.15,0.65
19.340,-0.31,0.19,0.19,0.41
19.350,-0.62,-0.93,0.79,1.37
19.360,-1.11,-2.36,1.11,2.83
19.370,-1.33,-3.61,1.03,3.98
19.380,-1.50,-4.32,0.73,4.63
19.390,-1.63,-4.85,0.26,5.12
19.400,-1.66,-5.19,-0.11,5.45
19.410,-1.65,-5.23,-0.54,5.51
19.420,-1.16,-5.56,-2.23,6.10
19.430,-1.32,-5.17,-1.70,5.60
19.440,-1.58,-3.98,0.79,4.35
19.450,-1.27,-3.11,2.04,3.93
19.460,-1.00,-2.25,2.00,3.17
19.470,-0.66,-1.40,1.02,1.85
19.480,0.03,-0.65,-0.02,0.66
19.490,0.87,-0.08,-0.48,1.00
19.500,1.42,0.22,-0.63,1.57
19.510,1.35,0.32,-0.45,1.46
19.520,0.80,-0.34,-0.08,0.88
19.529,0.14,-1.20,-0.18,1.22
19.540,-0.27,-1.85,-0.49,1.93
19.550,-0.13,-1.91,-0.90,2.12
19.560,-0.04,-1.90,-1.15,2.22
19.569,-0.12,-1.98,-0.98,2.21
19.580,-0.22,-2.17,-0.45,2.22
19.589,-0.10,-2.33,-0.01,2.34
19.599,0.37,-2.15,-0.20,2.18
19.610,0.81,-1.70,-0.51,1.95
19.619,0.76,-0.87,-0.59,1.30
19.630,0.33,0.36,-0.70,0.86
19.639,-0.20,1.59,-0.74,1.76
19.650,-0.71,2.35,-0.77,2.57
19.659,-0.88,1.69,-0.98,2.14
19.670,-0.81,0.77,-1.26,1.68
19.679,-0.45,0.34,-1.83,1.92
19.689,0.15,0.08,-2.70,2.71
19.699,0.70,-0.24,-3.06,3.15
19.709,0.93,-0.48,-2.46,2.67
19.719,0.59,-0.24,-1.77,1.88
19.729,0.61,-0.34,-1.27,1.45
19.739,1.11,-0.60,-0.66,1.42
19.749,1.45,-0.69,-0.57,1.70
19.759,1.19,-0.84,-0.74,1.63
19.769,0.58,-0.85,-0.78,1.29
19.779,-0.02,-0.79,-0.47,0.92
19.789,0.01,-0.65,-0.18,0.68
19.799,1.11,-0.77,-0.47,1.43
19.809,0.93,-0.28,-1.12,1.49
19.819,0.32,0.98,-1.10,1.51
19.829,-0.07,2.11,-0.77,2.24
19.839,-0.54,2.95,-0.54,3.04
19.849,-0.87,3.41,-0.29,3.53
19.859,-1.01,3.95,0.14,4.08
19.869,-1.13,4.95,0.42,5.09
19.879,-1.32,6.39,0.78,6.57
19.889,-1.60,7.89,1.64,8.22
19.899,-1.88,8.72,2.29,9.21
19.909,-2.27,8.56,2.35,9.16
19.919,-2.79,6.87,2.15,7.72
19.929,-3.41,5.22,1.17,6.35
19.939,-4.16,4.32,0.45,6.01
19.949,-4.28,3.23,0.26,5.37
19.959,-3.45,2.09,0.29,4.04
19.969,-1.80,0.76,0.31,1.98
19.979,0.05,-0.25,0.21,0.33
19.989,1.27,-0.56,0.72,1.56
19.999,2.14,-0.96,0.80,2.48
20.009,2.99,-2.21,0.18,3.73
20.019,3.58,-4.86,-1.82,6.30
20.029,3.64,-5.11,-0.69,6.32
20.039,3.98,-4.55,-0.89,6.11
20.049,4.36,-4.19,0.20,6.05
20.059,3.93,-2.66,0.03,4.74
20.069,3.63,-1.42,-1.41,4.14
20.079,3.23,-1.13,-1.65,3.80
20.089,2.65,-0.91,-0.55,2.85
20.099,1.73,0.10,0.31,1.77
20.109,0.81,1.06,0.84,1.57
20.119,0.37,1.18,1.01,1.60
20.129,0.01,1.24,2.83,3.09
20.139,-0.77,2.43,3.73,4.51
20.149,-0.97,2.32,4.31,4.99
20.159,-0.97,0.41,4.57,4.69
20.169,-1.07,-1.55,4.31,4.70
20.178,-1.52,-2.50,3.73,4.74
20.189,-1.86,-2.05,2.82,3.96
20.199,-1.74,-1.43,1.75,2.86
20.209,-1.06,-1.04,1.11,1.85
20.218,0.19,-0.84,0.42,0.96
20.229,1.12,-1.01,-0.23,1.52
20.238,1.35,-1.39,-1.20,2.28
20.248,1.02,-1.25,-2.15,2.69
20.258,0.76,-0.84,-1.72,2.06
20.268,0.76,-0.38,-0.14,0.86
20.278,0.93,-0.07,1.48,1.75
20.288,1.26,-0.21,2.94,3.20
20.298,1.61,-0.62,3.33,3.76
20.308,1.58,-0.88,2.63,3.19
20.318,1.07,-0.94,1.41,2.00
20.328,0.32,-1.07,0.11,1.12
20.338,-0.41,-1.60,-0.86,1.87
20.348,-0.69,-2.72,-1.50,3.18
20.358,-1.45,-3.01,-1.77,3.78
20.368,-1.93,-3.15,-1.51,3.99
20.378,-1.60,-3.09,-1.30,3.71
20.388,-1.16,-2.63,-1.27,3.14
20.398,-0.86,-2.25,-1.35,2.76
20.408,-0.54,-2.02,-1.63,2.65
20.418,-0.16,-1.69,-1.89,2.54
20.428,0.43,-1.20,-1.63,2.07
20.438,1.24,-0.82,-0.87,1.72
20.448,1.91,0.24,0.42,1.98
20.458,1.93,2.46,1.61,3.52
20.468,1.80,5.34,1.73,5.89
20.478,2.13,8.10,0.59,8.40
20.488,2.28,10.07,-0.20,10.33
20.498,0.87,10.56,-0.31,10.60
20.508,-2.92,9.33,0.56,9.79
20.518,-5.30,7.03,0.62,8.83
20.528,-5.65,5.07,-0.88,7.64
20.538,-4.67,1.50,-0.93,4.99
20.548,-4.42,-0.25,-0.28,4.44
20.558,-3.28,-0.33,-0.60,3.36
20.568,-0.88,-1.14,-0.62,1.57
20.578,0.27,-1.44,0.04,1.47
20.588,0.37,-1.59,0.60,1.74
20.598,0.53,-2.00,1.02,2.30
20.608,0.90,-2.53,0.98,2.86
20.618,0.87,-2.77,1.00,3.07
20.628,0.35,-2.83,1.11,3.06
20.638,-0.56,-2.86,1.18,3.14
20.648,-1.44,-2.56,0.74,3.03
20.658,-1.83,-2.86,-0.08,3.40
20.668,-2.07,-2.71,-0.32,3.42
20.678,-1.96,-2.40,-0.43,3.13
20.688,-1.87,-1.84,-0.18,2.63
20.698,-1.86,-1.63,0.16,2.48
20.708,-1.54,-1.65,-0.27,2.27
20.718,-1.34,-1.65,-0.86,2.29
20.728,-0.92,-1.63,-0.93,2.09
20.738,-0.43,-1.17,-0.80,1.48
20.748,0.03,-0.03,-0.39,0.40
20.757,0.27,0.95,-0.30,1.03
20.767,0.36,0.86,-0.54,1.07
20.778,0.34,0.48,-0.66,0.88
20.787,0.33,0.40,-0.47,0.70
20.797,0.62,-0.15,-0.74,0.97
20.808,1.10,-0.67,-0.76,1.50
20.818,1.13,-0.27,-0.19,1.17
20.828,0.56,0.62,0.26,0.88
20.838,-0.09,0.90,0.34,0.96
20.847,-0.53,0.85,0.36,1.06
20.857,-0.61,1.39,0.23,1.54
20.867,-0.50,2.37,0.06,2.42
20.877,-0.39,2.11,0.17,2.15
20.887,-0.22,1.68,0.01,1.69
20.897,-0.03,1.76,-0.01,1.76
20.907,-0.20,1.61,-0.18,1.63
20.917,-0.60,1.24,-0.33,1.41
20.927,-0.62,1.56,-0.88,1.90
20.937,-0.35,2.44,-0.98,2.66
20.947,0.09,2.31,-1.22,2.62
20.958,1.16,3.39,-0.99,3.71
20.967,2.45,3.42,-0.74,4.27
20.977,0.85,0.05,-0.74,1.13
20.987,0.35,-0.37,-1.38,1.47
20.997,-0.10,0.94,-0.65,1.15
21.007,0.20,1.25,0.40,1.33
21.017,0.69,0.79,-0.56,1.19
21.027,0.69,0.64,-0.12,0.95
21.037,0.45,0.09,0.88,0.99
21.047,0.21,-0.29,0.93,1.00
21.057,0.51,0.30,0.75,0.95
21.067,0.73,1.49,0.65,1.78
21.077,1.20,2.09,0.29,2.42
21.087,1.75,2.38,-1.37,3.26
21.097,1.90,3.27,-3.13,4.90
21.107,1.92,3.76,-4.95,6.50
21.117,2.10,3.72,-5.91,7.29
21.127,2.61,2.40,-4.31,5.58
21.137,2.64,3.76,-0.24,4.60
21.147,3.83,3.42,3.79,6.38
21.157,4.26,1.73,-0.07,4.60
21.167,3.15,2.07,-0.78,3.85
21.177,2.34,2.54,-0.56,3.50
21.187,1.82,2.99,-0.92,3.62
21.197,1.34,3.71,-1.52,4.22
21.207,1.38,3.79,-2.46,4.72
21.217,1.75,3.66,-3.98,5.68
21.227,1.74,4.26,-5.11,6.88
21.237,1.55,3.69,-4.11,5.73
21.247,1.24,1.74,-3.47,4.08
21.257,0.69,-0.53,-3.08,3.20
21.267,0.70,-2.69,-2.68,3.86
21.277,1.19,-2.67,-3.14,4.29
21.287,0.38,-1.59,-2.99,3.40
21.297,0.70,-2.25,-2.20,3.22
21.307,0.60,-2.41,-2.68,3.65
21.317,-0.34,-1.39,-0.14,1.43
21.327,-0.85,-0.53,1.49,1.79
21.337,-0.65,-0.79,-0.40,1.10
21.347,-0.59,0.03,-1.50,1.61
21.357,-0.74,1.24,-0.55,1.55
21.367,-0.47,0.67,-0.12,0.82
21.377,-0.31,0.01,-0.81,0.87
21.387,-0.41,0.39,-1.11,1.25
21.396,-0.80,0.94,-0.69,1.41
21.408,-0.94,1.35,-0.57,1.74
21.417,-0.91,2.05,-0.07,2.25
21.427,-0.82,2.45,0.58,2.65
21.437,-0.82,2.65,0.81,2.89
21.447,-1.07,2.68,1.70,3.35
21.457,-1.16,1.38,2.38,2.99
21.467,-1.33,0.61,2.26,2.69
21.476,-1.41,0.62,2.13,2.63
21.487,-1.50,0.28,2.51,2.94
21.496,-1.65,-0.08,3.00,3.42
21.507,-1.74,-0.11,3.72,4.11
21.516,-1.84,-0.25,4.09,4.49
21.527,-1.79,-0.03,4.22,4.58
21.536,-1.79,1.04,5.13,5.54
21.546,-1.75,1.72,6.50,6.95
21.556,-1.38,1.11,6.31,6.55
21.566,-0.84,0.26,5.53,5.60
21.576,-0.40,-0.04,5.53,5.54
21.586,-0.05,-0.86,5.79,5.85
21.596,0.23,-1.87,5.62,5.93
21.607,0.37,-2.11,5.56,5.96
21.616,0.68,-1.50,5.75,5.98
21.626,0.83,-0.05,6.33,6.38
21.636,0.59,-0.19,7.02,7.05
21.646,0.48,-1.57,7.80,7.97
21.656,-0.08,-2.60,10.08,10.41
21.667,4.70,-1.43,9.73,10.90
21.676,3.60,-3.19,11.38,12.35
21.686,2.53,-2.46,3.25,4.80
21.696,2.78,-3.25,4.49,6.20
21.706,2.02,-4.81,1.80,5.52
21.716,0.85,-4.49,2.01,4.99
21.726,-0.90,-2.92,4.47,5.41
21.736,-0.93,-1.45,5.09,5.37
21.746,-0.74,-0.86,4.34,4.49
21.756,-1.47,-0.51,2.80,3.21
21.766,-1.99,0.01,0.37,2.03
21.776,-1.70,0.29,-0.86,1.92
21.786,-1.52,0.60,-0.65,1.76
21.796,-0.99,-0.87,3.55,3.79
21.806,-1.45,-0.63,1.89,2.47
21.816,-1.33,-0.86,0.19,1.60
21.826,-1.63,-1.08,-0.53,2.02
21.836,-1.58,-0.63,-1.31,2.15
21.846,-1.18,0.24,-1.88,2.23
21.856,-0.94,0.69,-2.30,2.58
21.866,-0.85,0.71,-2.87,3.08
21.876,-0.90,0.52,-3.00,3.17
21.886,-0.55,0.52,-2.18,2.31
21.896,-0.09,0.10,-2.06,2.07
21.906,0.24,-0.69,-2.32,2.43
21.916,0.64,-1.24,-2.46,2.82
21.926,1.07,-1.49,-3.09,3.59
21.936,1.13,-1.29,-3.11,3.55
21.946,1.08,-0.97,-2.69,3.06
21.956,0.84,-0.60,-2.34,2.56
21.966,0.63,-0.16,-2.11,2.21
21.976,0.36,0.38,-1.91,1.99
21.986,0.04,0.72,-1.89,2.02
21.996,-0.11,0.50,-2.01,2.07
22.006,-0.00,0.07,-1.89,1.89
22.016,0.41,-0.40,-2.00,2.09
22.026,0.94,-0.62,-2.06,2.35
22.036,1.19,-0.72,-1.75,2.24
22.046,1.29,-0.90,-1.39,2.10
22.056,1.21,-0.98,-1.04,1.87
22.066,1.08,-1.45,0.97,2.05
22.076,1.18,-2.57,2.44,3.74
22.086,1.53,-2.42,2.27,3.66
22.096,1.51,-2.93,4.13,5.29
22.106,0.79,-3.24,4.01,5.21
22.116,1.04,-1.88,2.91,3.62
22.126,0.96,-1.06,2.39,2.78
22.136,0.65,-0.51,1.10,1.38
22.146,0.70,-0.01,-0.28,0.76
22.155,0.81,0.26,-0.92,1.25
22.166,0.76,0.29,-1.30,1.53
22.175,0.54,0.33,-1.39,1.53
22.185,-0.22,0.48,-0.99,1.12
22.195,-1.25,0.70,-0.22,1.45
22.206,-2.26,0.92,0.56,2.51
22.215,-2.74,0.86,0.87,3.00
22.225,-2.70,0.48,0.56,2.80
22.235,-2.07,-0.33,0.12,2.10
22.245,-1.36,-1.53,0.01,2.05
22.255,-0.86,-2.31,0.31,2.49
22.265,-0.59,-2.42,0.80,2.62
22.275,-0.65,-2.21,1.11,2.56
22.285,-0.78,-1.85,1.06,2.26
22.295,-0.83,-1.53,1.04,2.02
22.305,-0.96,-1.46,1.16,2.10
22.315,-0.88,-1.52,0.87,1.96
22.325,-0.40,-1.43,-0.59,1.60
22.335,-0.66,-1.32,-0.85,1.70
22.345,-1.45,-1.15,0.12,1.86
22.355,-1.85,-0.92,0.61,2.16
22.365,-2.15,-0.78,1.00,2.49
22.375,-2.17,-0.60,0.92,2.44
22.385,-1.93,-0.50,0.67,2.10
22.395,-1.58,-0.67,0.54,1.80
22.405,-1.22,-0.79,0.09,1.46
22.415,-0.68,-0.59,-0.59,1.08
22.425,-0.43,-0.37,-0.94,1.10
