time,ax,ay,az,atotal
0.000,0.41,-0.74,-0.48,0.97
0.010,0.33,-0.80,0.02,0.87
0.020,0.40,0.99,1.75,2.05
0.030,0.45,2.47,0.61,2.58
0.040,0.24,2.31,1.02,2.54
0.050,-0.15,1.47,1.55,2.14
0.060,-0.56,0.70,1.62,1.85
0.070,-0.70,0.17,1.58,1.73
0.080,-0.68,-0.24,1.31,1.49
0.090,-0.61,-0.51,0.78,1.11
0.100,-0.46,-0.53,0.31,0.77
0.110,-0.12,-0.38,-0.01,0.40
0.120,0.17,-0.23,-0.16,0.33
0.130,0.50,-0.17,-0.29,0.60
0.140,0.93,-0.27,-0.77,1.24
0.150,1.49,-0.55,-1.25,2.02
0.160,2.02,-1.14,-1.54,2.79
0.170,2.11,-1.96,-1.93,3.47
0.180,2.25,-2.67,-1.83,3.94
0.190,2.01,-3.10,-1.06,3.84
0.200,1.62,-3.22,-0.07,3.61
0.210,1.34,-3.18,1.07,3.62
0.220,0.82,-3.21,2.21,3.99
0.230,0.21,-3.26,3.13,4.53
0.240,-0.17,-3.20,3.98,5.11
0.250,-0.60,-2.83,5.18,5.93
0.259,-1.06,-2.69,5.91,6.58
0.269,-1.52,-2.69,5.75,6.52
0.279,-1.74,-2.66,5.03,5.95
0.289,-1.85,-2.76,3.71,4.98
0.299,-1.90,-2.49,2.57,4.05
0.309,-1.72,-1.67,1.90,3.06
0.320,-1.06,-0.99,1.86,2.36
0.329,-0.71,-0.63,1.93,2.15
0.339,-0.69,-0.40,2.05,2.19
0.349,-0.50,-0.58,2.13,2.27
0.359,-1.08,-0.82,2.02,2.43
0.369,-1.34,-0.91,1.70,2.35
0.379,-1.10,-1.01,1.04,1.82
0.389,-0.70,-0.89,0.90,1.45
0.399,-0.73,-0.54,1.29,1.58
0.409,-0.88,-0.24,1.82,2.04
0.419,-1.12,0.10,2.40,2.65
0.429,-1.11,0.38,2.90,3.13
0.439,-1.28,0.56,3.76,4.01
0.449,-3.57,0.12,8.08,8.83
0.459,-0.10,-1.90,6.01,6.30
0.469,0.15,-3.53,4.21,5.49
0.479,-3.79,-4.98,3.46,7.15
0.489,-3.40,-4.61,4.41,7.23
0.499,-3.58,-2.01,-28.13,28.43
0.509,-3.67,3.78,-43.36,43.68
0.519,-2.64,3.62,4.08,6.05
0.529,-0.11,1.20,7.81,7.90
0.539,0.06,-0.02,7.32,7.32
0.549,0.63,-0.89,2.92,3.12
0.559,0.49,-1.17,0.08,1.27
0.569,0.12,-1.34,0.30,1.38
0.579,0.58,-1.33,0.60,1.57
0.589,1.40,-0.62,-0.13,1.54
0.599,1.25,0.75,-0.83,1.68
0.609,1.04,2.14,-0.15,2.38
0.619,0.82,2.83,1.05,3.12
0.629,0.91,2.10,0.07,2.29
0.639,-2.01,1.84,-1.50,3.11
0.649,-3.21,1.68,-1.09,3.78
0.659,-2.61,1.35,-1.03,3.11
0.669,-2.05,1.39,0.41,2.51
0.679,-1.65,0.03,4.76,5.04
0.689,-0.05,-2.83,3.43,4.44
0.699,4.81,-2.60,1.39,5.64
0.709,2.19,-1.61,6.04,6.63
0.719,-0.42,-3.08,8.04,8.62
0.729,0.22,-4.45,3.09,5.42
0.739,0.82,-2.35,1.46,2.89
0.749,1.34,0.67,4.80,5.02
0.759,0.56,2.67,5.40,6.05
0.769,-0.63,3.91,5.17,6.51
0.779,-2.06,4.41,5.33,7.22
0.789,-3.14,4.09,5.02,7.20
0.799,-4.28,3.30,4.88,7.28
0.809,-5.21,2.70,5.11,7.78
0.819,-6.11,2.57,5.77,8.79
0.829,-6.92,2.71,6.55,9.90
0.839,-6.50,3.30,6.60,9.83
0.849,-5.65,4.09,6.24,9.36
0.859,-5.24,4.70,5.96,9.22
0.869,-5.44,5.47,6.15,9.87
0.879,-5.48,6.15,5.33,9.81
0.889,-5.39,6.56,4.35,9.54
0.899,-5.13,6.73,3.66,9.22
0.909,-4.48,6.61,3.05,8.55
0.918,-3.38,6.08,2.48,7.39
0.928,-1.71,5.92,1.49,6.34
0.939,-0.07,6.74,0.79,6.78
0.948,1.18,8.16,-0.28,8.25
0.959,2.40,9.28,-1.48,9.69
0.968,3.73,9.60,-2.34,10.56
0.979,4.60,9.83,-2.63,11.16
0.988,5.11,10.54,-2.65,12.01
0.998,5.78,11.15,-4.24,13.25
1.008,7.45,10.34,-6.09,14.12
1.018,8.10,9.54,-5.77,13.78
1.028,8.34,9.51,-6.91,14.41
1.038,9.20,7.94,-7.39,14.22
1.048,8.60,7.35,-7.43,13.53
1.058,8.00,7.46,-8.25,13.70
1.068,7.68,7.58,-9.42,14.33
1.078,7.18,7.28,-9.91,14.24
1.090,7.39,6.25,-9.87,13.83
1.098,9.74,3.76,-8.64,13.55
1.108,11.70,2.31,-5.28,13.04
1.118,8.99,2.51,-4.83,10.51
1.128,3.69,2.84,-7.45,8.78
1.138,3.82,3.60,-6.30,8.20
1.148,4.76,1.47,-2.26,5.47
1.158,3.54,0.13,-1.61,3.89
1.168,2.85,0.18,0.33,2.87
1.178,3.77,-1.69,1.52,4.41
1.188,4.38,-3.26,4.19,6.88
1.198,2.46,-0.57,2.59,3.62
1.208,3.25,-0.26,3.26,4.61
1.218,4.89,-2.10,4.58,7.02
1.228,4.01,-2.37,4.70,6.62
1.238,1.32,0.01,3.36,3.61
1.248,-1.03,1.72,1.31,2.39
1.258,-1.13,1.11,1.49,2.18
1.268,0.57,-1.08,2.30,2.61
1.278,0.53,-1.44,0.18,1.54
1.288,-1.53,0.14,1.41,2.09
1.298,-0.56,-0.08,-1.55,1.65
1.308,0.60,0.68,-2.32,2.49
1.318,0.43,0.11,-1.95,2.00
1.328,-0.96,-0.20,-2.92,3.08
1.338,-1.94,-0.04,-2.20,2.94
1.348,0.41,0.26,-1.50,1.57
1.358,0.48,1.14,-1.64,2.05
1.368,0.71,-0.54,-2.48,2.63
1.378,-1.31,-2.09,0.48,2.51
1.388,0.87,-3.68,-2.07,4.31
1.398,2.28,-2.91,-0.08,3.70
1.408,1.02,-3.29,0.41,3.46
1.418,2.09,-3.49,0.13,4.07
1.428,1.70,-2.21,0.47,2.82
1.438,0.70,-2.61,-0.11,2.71
1.448,0.86,-2.39,0.47,2.59
1.458,0.38,-1.91,0.88,2.13
1.468,0.82,-1.53,-0.12,1.74
1.478,0.72,-1.76,-1.82,2.63
1.488,0.24,-2.42,0.90,2.59
1.498,0.49,-2.90,0.51,2.99
1.507,0.88,-2.43,-0.02,2.58
1.518,0.86,-1.29,0.08,1.55
1.528,0.91,-1.08,0.25,1.43
1.538,1.12,-1.30,0.43,1.76
1.548,1.18,-1.04,0.55,1.67
1.558,0.63,-1.42,0.67,1.69
1.568,-0.32,-1.49,0.82,1.73
1.577,-0.39,0.00,0.30,0.49
1.588,-0.85,0.43,-0.59,1.12
1.597,-1.43,0.73,-0.97,1.88
1.607,-1.79,0.74,-1.10,2.23
1.618,-2.07,0.30,-1.02,2.32
1.627,-2.30,-0.16,-0.94,2.48
1.637,-2.27,-0.42,-0.81,2.44
1.647,-2.12,-0.88,-0.62,2.38
1.658,-2.01,-1.28,-0.23,2.40
1.668,-1.63,-0.99,0.12,1.91
1.678,-1.41,-0.83,0.33,1.67
1.687,-1.13,-0.85,0.71,1.58
1.697,-1.13,-1.19,0.91,1.87
1.707,-1.13,-1.01,1.11,1.88
1.717,-1.39,-1.06,0.81,1.92
1.727,-1.43,-0.84,0.62,1.77
1.737,-1.58,-0.68,1.25,2.12
1.747,-1.93,-1.24,0.10,2.30
1.757,-1.94,-0.46,-0.17,2.00
1.767,-1.89,-0.68,0.48,2.07
1.777,-1.49,-1.43,0.22,2.08
1.787,-1.37,-1.52,0.31,2.07
1.797,-1.22,-1.57,0.10,1.99
1.807,-0.83,-0.54,-0.25,1.02
1.817,-0.43,-0.03,-0.70,0.82
1.827,-0.12,-0.81,-0.93,1.24
1.837,-0.16,-1.94,-1.09,2.23
1.847,0.03,-1.51,-1.15,1.90
1.857,0.55,0.80,-1.03,1.41
1.867,0.62,-0.08,-1.40,1.53
1.877,1.09,-1.82,-0.71,2.24
1.887,1.60,-1.75,0.44,2.41
1.897,2.20,-1.73,0.72,2.89
1.907,3.25,-0.54,0.51,3.34
1.917,3.97,0.70,1.27,4.22
1.927,4.57,-0.10,1.32,4.76
1.937,4.38,0.04,1.28,4.56
1.947,3.56,0.68,1.05,3.78
1.957,2.73,0.71,0.47,2.86
1.967,1.82,0.46,0.61,1.97
1.977,1.21,1.37,1.04,2.11
1.987,0.31,3.42,0.86,3.54
1.997,-0.61,4.50,0.66,4.59
2.007,-0.65,3.35,-0.31,3.43
2.017,-0.55,2.04,-0.44,2.16
2.027,-0.46,1.53,-0.09,1.60
2.037,0.20,0.57,-1.53,1.64
2.047,0.72,-1.18,-1.90,2.35
2.057,1.31,-4.22,-2.29,4.98
2.067,0.42,-4.93,-0.94,5.03
2.077,0.06,-2.79,4.10,4.96
2.087,1.74,1.18,1.67,2.69
2.097,2.18,1.82,-3.42,4.44
2.107,0.50,2.75,-1.26,3.06
2.117,-0.47,2.75,-0.97,2.96
2.127,-0.14,1.76,-2.31,2.91
2.137,-0.34,0.98,-3.09,3.25
2.147,-0.29,0.60,-2.28,2.37
2.157,0.55,0.08,-0.97,1.12
2.167,0.98,-0.16,0.05,1.00
2.176,0.06,0.20,1.01,1.03
2.187,-1.27,0.99,-0.27,1.63
2.197,-2.32,1.95,-2.10,3.69
2.207,-2.57,2.20,-3.58,4.93
2.217,-2.24,1.56,-3.45,4.40
2.227,-1.92,0.36,-2.80,3.41
2.236,-1.58,-0.86,-2.05,2.72
2.247,-1.36,-1.60,-1.34,2.49
2.256,-1.23,-2.11,-1.09,2.67
2.267,-1.33,-2.55,-1.06,3.07
2.277,-1.55,-2.71,-0.76,3.21
2.287,-1.53,-2.35,-0.40,2.84
2.296,-1.31,-1.34,0.10,1.88
2.307,-0.90,-0.07,0.65,1.11
2.317,-0.37,0.70,2.02,2.17
2.326,-0.04,0.72,1.30,1.49
2.336,-0.13,-0.35,1.03,1.10
2.346,9.19,-3.99,-1.73,10.17
2.356,21.18,-4.22,5.20,22.22
2.367,0.46,4.41,9.74,10.70
2.376,-1.06,0.41,4.09,4.25
2.386,-1.32,0.29,0.93,1.64
2.396,-1.45,0.35,-0.28,1.52
2.406,-1.47,0.18,-1.05,1.82
2.416,-1.12,-0.15,-1.04,1.54
2.426,2.81,-0.92,-1.37,3.26
2.436,1.13,-1.08,-9.35,9.48
2.446,-7.50,-6.97,-20.18,22.63
2.456,-0.59,-10.60,-4.54,11.55
2.466,-2.37,-1.98,6.38,7.09
2.476,-3.17,0.44,8.60,9.18
2.486,-2.94,-1.39,2.91,4.37
2.497,-1.56,-1.32,2.05,2.89
2.506,1.35,0.76,1.51,2.16
2.516,2.79,2.27,1.69,3.97
2.526,2.49,2.48,1.75,3.93
2.536,1.82,1.76,1.50,2.94
2.546,1.89,1.49,0.78,2.53
2.556,2.03,0.74,0.06,2.16
2.566,0.80,1.42,-0.76,1.79
2.576,0.10,0.53,-1.26,1.37
2.586,0.58,0.24,-1.32,1.46
2.596,0.27,0.41,-1.85,1.92
2.606,0.56,0.40,-1.87,1.99
2.616,0.74,0.86,-1.62,1.98
2.626,0.97,0.59,-1.32,1.74
2.636,1.15,-0.37,-1.02,1.58
2.646,1.22,-0.51,-0.23,1.34
2.656,1.37,0.11,0.55,1.48
2.666,1.52,0.92,-0.19,1.78
2.676,1.94,1.00,-0.99,2.40
2.686,1.37,1.55,-0.19,2.08
2.696,1.33,0.25,0.52,1.45
2.706,1.20,-0.14,1.38,1.83
2.716,1.24,-0.46,1.30,1.86
2.726,1.61,-0.84,-0.36,1.85
2.736,1.74,-1.08,-1.43,2.50
2.746,1.89,-1.81,-1.31,2.93
2.756,2.52,-2.70,-0.63,3.75
2.766,1.47,-0.89,0.77,1.88
2.776,-0.97,-0.53,-0.19,1.12
2.786,-0.50,-1.62,-2.51,3.03
2.795,0.49,-1.75,-2.27,2.91
2.806,1.18,-1.15,-1.62,2.31
2.816,1.36,-0.69,-1.63,2.23
2.826,1.50,-0.66,-1.74,2.38
2.836,1.92,-0.53,-2.34,3.07
2.846,1.57,0.45,-1.50,2.22
2.856,1.69,0.99,-0.76,2.10
2.866,1.86,1.34,-0.43,2.33
2.876,1.71,1.38,-0.49,2.25
2.886,1.37,1.12,-1.01,2.03
2.896,0.31,1.63,-1.05,1.96
2.906,-5.88,6.48,-0.58,8.78
2.915,-12.22,6.94,-0.39,14.06
2.926,-11.04,2.74,1.81,11.52
2.936,-4.34,2.36,1.15,5.07
2.945,-0.25,-0.29,-2.78,2.81
2.955,1.10,-3.70,-2.59,4.65
2.965,2.23,-5.70,-1.37,6.27
2.975,3.46,-6.58,-0.95,7.49
2.985,3.09,-3.54,-1.77,5.02
2.995,1.61,0.58,-2.32,2.89
3.005,1.70,0.33,-1.46,2.27
3.015,1.66,0.45,-0.81,1.90
3.025,1.30,0.81,-0.53,1.62
3.035,1.13,0.84,-0.60,1.53
3.045,0.89,0.75,-0.92,1.48
3.055,0.48,0.84,-1.26,1.59
3.065,0.14,1.11,-1.21,1.65
3.075,-0.17,1.65,-0.53,1.74
3.085,-0.54,2.42,-0.02,2.48
3.095,-0.86,2.88,-0.49,3.05
3.105,-0.84,3.11,-1.41,3.52
3.115,-0.60,3.89,-1.89,4.36
3.125,-0.38,5.23,-1.83,5.55
3.135,-0.43,6.54,-0.83,6.60
3.145,-0.61,7.14,-0.33,7.18
3.155,-0.49,7.11,-1.12,7.21
3.165,0.08,6.30,-1.30,6.43
3.175,0.85,4.89,-1.13,5.09
3.185,0.80,4.88,-1.25,5.10
3.195,0.54,4.77,-1.22,4.95
3.205,0.46,4.25,-0.68,4.33
3.215,0.42,3.73,0.11,3.75
3.225,0.59,3.03,0.85,3.20
3.235,0.92,2.06,1.18,2.54
3.245,1.13,0.94,1.12,1.85
3.255,1.13,-0.57,0.95,1.58
3.265,0.83,-2.20,0.65,2.44
3.275,0.42,-3.64,0.32,3.68
3.285,-0.05,-4.69,0.00,4.69
3.295,-0.49,-5.51,-0.19,5.53
3.305,-0.84,-6.14,-0.35,6.20
3.315,-1.27,-6.55,-0.52,6.69
3.325,-1.82,-6.64,-0.69,6.92
3.335,-2.32,-6.14,-0.73,6.61
3.345,-2.61,-5.02,-0.46,5.68
3.355,-2.76,-3.37,-0.06,4.35
3.365,-2.83,-1.66,0.30,3.29
3.375,-2.27,-0.38,0.58,2.37
3.385,-1.41,0.88,0.31,1.69
3.395,-0.67,1.74,-0.46,1.92
3.405,-0.17,0.82,-0.91,1.24
3.415,0.17,-0.71,-0.80,1.08
3.425,0.25,-1.33,-0.72,1.53
3.435,0.21,-1.57,-0.79,1.77
3.445,0.02,-2.16,-0.82,2.31
3.455,-0.26,-2.61,-0.74,2.72
3.465,-0.50,-2.86,-0.64,2.97
3.475,-0.74,-2.82,-0.56,2.97
3.485,-1.00,-2.50,-0.44,2.72
3.495,-1.27,-1.90,-0.24,2.30
3.505,-1.54,-1.55,0.10,2.19
3.515,-1.69,-1.46,0.10,2.23
3.525,-1.77,-1.02,-0.01,2.04
3.535,-1.75,-1.00,-0.48,2.07
3.545,-1.54,-1.29,-1.30,2.39
3.555,-1.25,-1.47,-1.87,2.68
3.565,-0.94,-0.94,-1.93,2.34
3.575,-0.51,-0.49,-1.82,1.96
3.585,-0.12,-0.34,-1.87,1.90
3.594,0.12,-0.44,-1.98,2.03
3.605,0.14,-0.82,-2.07,2.23
3.615,0.34,-1.02,-2.24,2.48
3.625,0.86,-1.00,-2.16,2.53
3.635,1.13,-0.85,-1.78,2.27
3.644,1.24,-0.41,-1.53,2.01
3.655,1.14,0.02,-1.45,1.84
3.665,0.81,0.54,-1.55,1.83
3.674,0.42,1.13,-1.63,2.03
3.684,0.01,1.46,-1.43,2.04
3.694,-0.35,2.02,-0.96,2.26
3.704,-0.31,3.34,-0.83,3.46
3.715,-0.11,5.28,-1.45,5.47
3.725,-0.05,7.10,-1.86,7.33
3.734,-0.40,8.18,-1.24,8.29
3.744,-0.66,7.65,0.37,7.69
3.754,-0.22,6.60,1.98,6.89
3.764,0.34,6.45,2.77,7.03
3.774,0.45,6.88,2.82,7.45
3.784,-0.15,7.16,2.36,7.55
3.794,-1.27,6.45,1.51,6.75
3.804,-2.22,4.88,0.87,5.43
3.814,-2.73,3.10,0.59,4.18
3.824,-1.82,-0.00,0.45,1.87
3.834,0.41,-3.34,0.54,3.41
3.844,1.62,-4.51,0.21,4.79
3.854,1.16,-5.33,-0.73,5.51
3.864,0.90,-5.96,-0.56,6.06
3.874,1.90,-6.46,-0.36,6.74
3.884,3.26,-6.75,-0.40,7.51
3.894,4.25,-7.31,-1.52,8.60
3.904,4.58,-7.64,-2.88,9.36
3.914,4.08,-4.32,-3.30,6.80
3.924,3.07,0.46,-2.57,4.03
3.934,2.01,4.74,-1.02,5.25
3.944,0.86,7.47,0.61,7.55
3.954,-0.60,8.86,1.20,8.96
3.964,-2.44,8.66,2.06,9.23
3.974,-3.78,6.24,3.73,8.20
3.984,-4.41,2.28,4.24,6.53
3.994,-4.94,-1.37,4.29,6.68
4.004,-4.29,-3.83,4.40,7.25
4.014,-2.31,-4.89,3.79,6.60
4.024,-0.41,-4.78,2.47,5.40
4.034,0.54,-3.56,1.15,3.78
4.044,1.07,-2.50,0.22,2.73
4.054,1.72,-2.35,-0.68,2.99
4.064,2.11,-2.22,-1.63,3.47
4.074,2.45,-2.23,-1.86,3.80
4.084,2.56,-2.17,-0.95,3.48
4.094,2.47,-1.72,0.44,3.04
4.104,2.32,-1.37,1.46,3.06
4.114,2.11,-0.99,1.81,2.95
4.124,1.72,-0.70,1.42,2.34
4.135,1.02,-0.52,0.32,1.19
4.144,0.38,-0.28,-1.14,1.23
4.154,-0.16,0.18,-2.47,2.49
4.164,-0.60,0.74,-3.59,3.71
4.174,-1.08,1.23,-4.52,4.81
4.184,-1.65,1.40,-4.76,5.23
4.193,-2.18,1.52,-3.72,4.57
4.204,-2.75,2.37,-0.90,3.74
4.214,-3.37,4.54,2.05,6.01
4.224,-2.68,6.70,2.74,7.71
4.234,-0.88,8.60,1.88,8.85
4.244,-0.29,9.24,1.29,9.34
4.253,-1.44,9.43,1.30,9.62
4.264,-3.00,8.93,0.75,9.45
4.274,-2.08,3.58,0.39,4.16
4.284,-1.66,-1.40,0.17,2.18
4.294,-2.78,-2.51,0.58,3.79
4.304,-2.68,-2.44,0.77,3.71
4.314,-1.48,-2.57,0.19,2.97
4.323,-0.36,-3.26,-0.13,3.29
4.334,0.31,-3.80,-0.01,3.81
4.344,0.76,-4.37,0.06,4.44
4.354,0.77,-4.82,0.00,4.89
4.364,0.55,-5.23,-0.05,5.26
4.373,0.31,-5.64,-0.15,5.65
4.384,0.22,-5.91,-0.13,5.92
4.393,0.14,-5.60,-0.14,5.60
4.403,-0.04,-4.33,-0.20,4.33
4.413,-0.01,-2.42,-0.88,2.57
4.423,0.08,-0.56,-1.86,1.94
4.433,0.01,0.74,-2.21,2.33
4.443,-0.02,1.76,-2.08,2.72
4.453,0.08,2.39,-2.06,3.16
4.463,0.26,1.62,-2.03,2.61
4.473,0.21,-0.99,-1.21,1.58
4.484,-0.55,-2.79,-0.63,2.91
4.493,-1.54,-4.11,-0.67,4.43
4.503,-1.97,-4.74,-1.36,5.31
4.513,-2.08,-4.43,-1.91,5.25
4.523,-2.07,-3.75,-1.86,4.67
4.533,-1.88,-2.97,-1.26,3.73
4.543,-1.76,-2.17,-0.52,2.84
4.553,-1.65,-1.40,0.06,2.16
4.563,-1.42,-0.62,0.28,1.57
4.573,-1.09,-0.04,0.11,1.09
4.583,-0.68,0.27,-0.56,0.92
4.593,-0.30,0.60,-1.31,1.47
4.603,-0.06,1.16,-1.58,1.96
4.613,0.06,1.41,-1.86,2.34
4.623,0.05,1.61,-2.18,2.71
4.633,0.10,1.54,-2.58,3.01
4.643,0.26,2.14,-2.32,3.17
4.653,0.54,2.65,-1.97,3.35
4.663,0.95,2.57,-2.07,3.43
4.673,1.28,2.45,-2.36,3.64
4.683,1.77,2.43,-2.09,3.66
4.693,2.06,3.45,-1.60,4.33
4.703,2.08,3.51,-1.54,4.37
4.713,1.68,3.26,-1.43,3.94
4.723,1.17,3.27,-1.04,3.63
4.733,0.28,3.55,-0.24,3.57
4.743,-0.77,3.85,1.05,4.07
4.753,-1.05,4.12,2.20,4.79
4.763,-0.31,4.05,2.83,4.95
4.773,0.43,3.85,2.76,4.75
4.783,0.46,3.45,2.14,4.09
4.793,0.15,2.94,1.31,3.22
4.803,-0.13,2.29,0.41,2.33
4.813,-0.26,1.18,-0.49,1.30
4.823,-0.09,-0.53,-0.88,1.03
4.833,1.17,-3.33,-0.64,3.59
4.843,1.93,-5.07,0.26,5.43
4.853,2.22,-5.73,0.33,6.15
4.863,2.59,-6.14,0.21,6.67
4.873,2.52,-5.22,0.73,5.85
4.883,2.43,-4.21,1.22,5.01
4.892,2.58,-2.21,1.23,3.61
4.903,2.52,0.82,0.77,2.76
4.913,2.19,4.70,0.40,5.20
4.923,1.61,7.66,-0.03,7.82
4.933,0.14,9.11,0.49,9.12
4.942,-1.51,7.18,1.80,7.55
4.953,-2.46,3.58,2.95,5.26
4.962,-3.16,1.47,3.33,4.82
4.972,-3.93,-0.07,3.20,5.07
4.983,-4.60,-1.63,2.69,5.57
4.992,-5.08,-3.24,2.20,6.41
5.003,-4.83,-4.91,1.70,7.09
5.012,-3.49,-6.15,0.91,7.12
5.023,-1.78,-6.13,-0.13,6.38
5.032,-0.59,-5.33,-1.05,5.47
5.042,0.00,-4.89,-1.71,5.18
5.052,0.15,-4.72,-2.22,5.22
5.062,0.29,-4.68,-2.46,5.29
5.072,0.71,-4.74,-2.37,5.35
5.082,1.26,-4.55,-1.59,4.98
5.092,1.82,-4.10,-0.45,4.51
5.102,2.39,-3.44,0.69,4.25
5.112,3.10,-2.86,1.83,4.59
5.122,3.67,-2.23,2.92,5.19
5.132,4.02,-1.40,2.97,5.18
5.142,3.30,-0.58,1.48,3.67
5.152,1.53,0.77,-1.13,2.05
5.162,0.26,1.84,-3.65,4.10
5.172,-0.00,2.59,-5.22,5.83
5.182,-0.14,3.50,-5.06,6.16
5.192,-0.59,4.37,-4.20,6.09
5.202,-0.92,4.93,-2.96,5.82
5.212,-0.77,5.65,-1.26,5.84
5.222,-0.21,6.57,1.68,6.79
5.232,0.79,7.59,4.76,8.99
5.242,1.40,7.48,3.30,8.29
5.252,0.06,7.33,0.00,7.33
5.262,-2.11,7.97,-1.49,8.38
5.272,-4.55,9.24,-0.63,10.32
5.282,-6.37,10.05,0.25,11.90
5.292,-5.05,5.32,1.01,7.41
5.302,-2.47,-1.70,1.78,3.49
5.312,-1.83,-4.25,1.99,5.03
5.322,-1.90,-5.34,1.53,5.87
5.332,-1.94,-5.97,0.88,6.34
5.342,-1.71,-6.59,0.32,6.81
5.352,-1.25,-7.41,-0.09,7.51
5.362,-0.94,-8.41,-0.48,8.48
5.372,-0.93,-8.72,-0.80,8.80
5.382,-0.92,-7.63,-0.89,7.74
5.392,-0.80,-6.09,-0.69,6.18
5.402,-0.13,-4.21,-0.30,4.22
5.412,1.03,-1.63,0.14,1.94
5.422,2.09,1.41,0.49,2.57
5.432,2.39,4.18,0.66,4.86
5.442,1.97,6.63,0.26,6.92
5.452,1.25,8.98,0.08,9.07
5.462,0.66,10.85,0.27,10.87
5.472,0.10,8.80,0.41,8.81
5.482,-0.48,1.79,1.26,2.24
5.492,-1.89,-2.75,1.53,3.67
5.502,-2.29,-4.66,0.71,5.24
5.512,-1.66,-5.27,-0.73,5.57
5.522,-1.03,-5.52,-2.09,5.99
5.532,-0.37,-5.30,-2.70,5.96
5.542,-0.05,-4.59,-2.18,5.08
5.551,-0.25,-4.23,-1.08,4.37
5.562,-0.80,-3.92,-0.21,4.01
5.572,-1.20,-3.42,0.39,3.65
5.582,-1.32,-2.57,0.30,2.90
5.592,-1.35,-1.83,-0.60,2.35
5.602,-1.17,-1.47,-1.56,2.44
5.612,-0.89,-1.18,-2.28,2.72
5.622,-0.64,-0.99,-2.71,2.95
5.631,-0.30,-0.83,-2.90,3.03
5.642,0.12,-0.63,-2.92,2.99
5.652,0.46,-0.66,-2.62,2.74
5.662,1.03,-0.74,-2.30,2.62
5.671,1.61,-0.60,-2.02,2.65
5.682,2.04,-0.13,-2.15,2.97
5.691,2.28,0.64,-2.33,3.33
5.702,2.33,1.74,-2.37,3.75
5.711,2.24,2.99,-2.16,4.32
5.721,2.06,4.33,-1.67,5.08
5.731,1.93,5.25,-1.18,5.72
5.741,1.80,5.33,-0.45,5.64
5.751,1.75,5.56,0.44,5.85
5.761,1.68,6.24,0.67,6.50
5.771,1.41,6.94,0.93,7.14
5.782,1.38,7.55,1.48,7.81
5.791,1.76,7.88,1.66,8.24
5.802,2.05,7.25,1.59,7.70
5.811,1.88,5.37,1.39,5.86
5.821,1.20,3.16,1.05,3.54
5.831,0.24,1.38,0.41,1.46
5.841,-0.49,-0.02,-0.28,0.57
5.851,-0.54,-2.11,-1.04,2.41
5.861,0.39,-5.04,-1.77,5.35
5.871,1.56,-6.42,-1.69,6.82
5.881,2.28,-7.47,-1.33,7.92
5.891,2.23,-8.84,-1.38,9.22
5.901,2.36,-9.12,-0.76,9.45
5.911,2.45,-6.29,-0.37,6.76
5.921,2.48,-3.48,-1.14,4.42
5.931,1.79,-0.51,-1.79,2.58
5.941,1.11,3.87,-2.20,4.59
5.951,0.87,7.97,-2.28,8.33
5.961,0.60,10.42,-1.33,10.52
5.971,-0.01,9.78,1.07,9.84
5.981,-0.87,6.64,3.43,7.53
5.991,-1.75,3.70,4.61,6.16
6.001,-2.85,1.75,5.04,6.05
6.011,-3.97,-0.38,4.33,5.89
6.021,-4.69,-2.41,3.06,6.10
6.031,-4.40,-4.03,1.59,6.18
6.041,-3.16,-5.14,0.35,6.04
6.051,-1.53,-5.62,-0.60,5.86
6.061,-0.38,-5.17,-1.01,5.29
6.071,0.29,-4.57,-1.25,4.75
6.081,0.64,-4.49,-1.53,4.79
6.091,0.74,-4.66,-1.72,5.02
6.101,0.66,-4.52,-1.69,4.87
6.111,0.56,-4.07,-1.21,4.29
6.121,0.78,-3.73,-0.18,3.82
6.131,1.15,-3.40,1.22,3.79
6.141,1.31,-2.69,2.18,3.70
6.151,1.16,-1.69,2.69,3.39
6.161,0.84,-0.49,2.34,2.53
6.171,0.45,0.33,1.22,1.34
6.181,-0.13,0.88,0.07,0.89
6.191,-0.82,1.68,-1.38,2.32
6.201,-1.31,2.61,-2.64,3.93
6.210,-1.17,3.06,-3.84,5.04
6.221,-0.49,2.20,-4.18,4.75
6.230,-0.40,1.60,-3.40,3.78
6.241,-0.77,1.85,-2.13,2.92
6.251,-1.09,2.69,-0.52,2.95
6.261,-0.76,4.54,2.17,5.09
6.271,-0.02,6.97,4.66,8.38
6.281,1.86,9.00,2.96,9.65
6.291,3.59,10.41,0.05,11.01
6.302,2.73,11.91,-1.41,12.30
6.312,-1.41,12.35,-0.97,12.46
6.321,-5.66,9.34,-0.24,10.93
6.331,-4.40,0.96,-0.12,4.50
6.340,-2.96,-3.65,-0.54,4.74
6.350,-2.82,-4.85,-0.37,5.62
6.360,-2.25,-4.97,-0.34,5.47
6.370,-1.24,-5.04,-1.02,5.29
6.380,-0.23,-5.64,-1.30,5.79
6.391,0.10,-6.20,-0.95,6.27
6.400,0.13,-6.31,-0.11,6.31
6.410,0.33,-6.21,0.62,6.24
6.420,0.50,-5.69,1.01,5.80
6.430,0.36,-4.62,1.19,4.79
6.441,0.20,-3.24,1.02,3.40
6.450,-0.01,-1.45,0.53,1.55
6.460,-0.15,0.50,-0.03,0.52
6.470,-0.38,2.04,-0.59,2.15
6.480,-0.86,3.23,-0.87,3.45
6.490,-1.24,3.74,-0.88,4.04
6.500,-1.17,2.58,-0.37,2.86
6.510,-0.40,-0.60,-0.46,0.85
6.520,-0.22,-3.11,-1.16,3.33
6.530,-0.54,-4.84,-1.73,5.17
6.540,-0.59,-5.78,-2.20,6.22
6.550,-0.28,-6.07,-2.58,6.60
6.560,0.12,-6.13,-2.90,6.78
6.570,0.30,-5.62,-2.82,6.29
6.580,0.10,-4.08,-1.67,4.41
6.590,-0.49,-3.03,-0.10,3.07
6.600,-1.13,-2.38,1.02,2.82
6.610,-1.35,-1.45,1.37,2.41
6.620,-1.23,-0.69,1.04,1.75
6.630,-0.93,-0.31,0.37,1.05
6.640,-0.57,0.01,-0.37,0.68
6.650,-0.46,0.30,-0.90,1.06
6.660,-0.70,0.60,-1.11,1.44
6.670,-1.24,0.86,-1.50,2.12
6.680,-1.74,0.94,-2.13,2.91
6.690,-1.76,0.73,-2.37,3.04
6.700,-1.32,0.38,-2.38,2.75
6.710,-0.44,-0.12,-2.55,2.59
6.720,0.43,0.15,-2.67,2.71
6.730,1.18,1.02,-2.55,2.98
6.740,1.70,2.03,-2.36,3.55
6.750,1.95,3.27,-2.37,4.49
6.760,2.15,4.80,-2.65,5.89
6.770,2.38,6.15,-2.69,7.12
6.780,2.39,6.85,-2.18,7.57
6.790,1.69,7.06,-1.50,7.41
6.800,0.46,6.84,-0.78,6.90
6.810,-0.84,6.52,0.19,6.58
6.820,-1.11,6.40,1.40,6.64
6.830,-0.15,6.43,2.92,7.06
6.840,0.39,5.23,3.85,6.51
6.850,0.23,2.85,3.53,4.54
6.860,-0.11,0.93,2.72,2.88
6.870,-0.12,-0.45,1.59,1.65
6.880,0.54,-2.11,0.38,2.21
6.890,2.44,-4.46,-1.44,5.28
6.900,4.20,-6.27,-2.31,7.90
6.910,4.56,-7.24,-2.13,8.82
6.920,4.35,-7.62,-2.20,9.05
6.930,4.31,-8.37,-1.12,9.48
6.940,4.41,-7.54,0.02,8.74
6.950,3.91,-4.67,-0.25,6.10
6.960,3.66,-0.98,-0.27,3.80
6.969,3.28,2.67,0.13,4.23
6.980,2.30,6.15,1.45,6.73
6.989,1.02,9.89,2.62,10.28
7.000,-0.37,13.04,2.22,13.23
7.009,-2.10,15.26,0.84,15.43
7.020,-3.41,14.51,1.25,14.95
7.029,-4.43,7.34,3.62,9.31
7.040,-5.36,1.31,5.27,7.63
7.049,-5.48,-1.89,5.42,7.94
7.060,-5.41,-4.04,4.50,8.11
7.069,-4.77,-5.36,3.12,7.82
7.079,-3.60,-6.14,1.52,7.28
7.089,-1.99,-6.94,-0.18,7.22
7.099,-0.56,-7.42,-1.29,7.55
7.109,-0.23,-6.27,-1.98,6.58
7.119,-0.57,-5.14,-2.53,5.76
7.129,-0.79,-4.98,-2.60,5.67
7.139,-0.91,-4.88,-2.07,5.38
7.149,-0.83,-4.15,-1.31,4.43
7.159,-0.66,-2.88,-0.39,2.98
7.169,-0.42,-1.60,0.49,1.73
7.179,0.01,-0.58,1.21,1.34
7.189,0.67,0.19,1.55,1.69
7.199,1.37,0.77,1.11,1.92
7.209,1.70,1.37,0.16,2.19
7.219,1.86,1.51,-0.90,2.56
7.229,1.99,1.36,-2.01,3.14
7.239,2.04,1.15,-2.91,3.74
7.249,1.95,1.13,-3.37,4.05
7.259,1.39,1.56,-3.48,4.06
7.269,1.05,2.28,-2.58,3.60
7.279,1.38,3.70,-0.33,3.96
7.289,2.15,5.98,2.65,6.88
7.299,2.84,8.10,3.55,9.29
7.309,2.83,9.19,1.93,9.80
7.319,1.59,9.56,-0.31,9.69
7.330,-0.56,9.56,-1.50,9.70
7.339,-2.83,7.05,-1.61,7.77
7.349,-2.35,-0.40,-1.34,2.73
7.359,-2.67,-3.89,-1.02,4.83
7.369,-3.82,-4.51,-0.17,5.91
7.379,-3.92,-4.71,0.05,6.13
7.389,-3.09,-5.08,-0.32,5.96
7.399,-1.84,-5.65,-0.56,5.97
7.409,-0.86,-6.10,-0.22,6.16
7.419,-0.33,-6.38,0.38,6.40
7.429,-0.13,-6.46,0.88,6.52
7.439,-0.23,-5.94,1.04,6.03
7.449,-0.38,-4.84,1.01,4.96
7.459,-0.47,-3.50,0.77,3.61
7.469,-0.20,-2.03,0.39,2.07
7.479,0.34,-0.09,-0.05,0.36
7.489,0.82,2.02,-0.68,2.28
7.499,0.42,3.95,-0.77,4.05
7.509,-0.50,5.45,-0.40,5.49
7.519,-1.34,6.41,-0.19,6.55
7.529,-1.48,5.02,-0.37,5.25
7.539,-1.31,0.79,-0.43,1.59
7.549,-1.64,-1.90,-0.40,2.54
7.559,-1.62,-3.68,-0.42,4.04
7.568,-1.07,-4.73,-0.59,4.89
7.579,-0.41,-5.21,-1.00,5.32
7.589,0.12,-5.32,-1.45,5.52
7.599,0.23,-4.82,-1.36,5.01
7.609,-0.18,-4.27,-1.02,4.39
7.619,-0.73,-3.93,-0.51,4.03
7.629,-1.13,-3.58,-0.05,3.76
7.639,-1.20,-3.24,0.31,3.47
7.649,-1.08,-2.93,0.08,3.12
7.659,-0.96,-2.77,-0.76,3.03
7.668,-0.98,-2.47,-1.63,3.11
7.679,-0.92,-2.01,-2.08,3.03
7.688,-0.91,-1.47,-2.28,2.86
7.698,-0.83,-0.97,-2.26,2.60
7.708,-0.87,-0.38,-2.14,2.34
7.719,-0.82,0.32,-2.10,2.27
7.729,-0.72,0.93,-1.95,2.28
7.738,-0.68,1.02,-1.86,2.23
7.748,-0.73,0.75,-2.27,2.50
7.758,-0.80,0.38,-2.90,3.03
7.768,-0.58,-0.10,-3.00,3.06
7.778,-0.04,-1.05,-2.56,2.77
7.788,0.43,-1.97,-1.74,2.66
7.798,0.79,-1.65,-1.15,2.16
7.809,1.30,-0.51,-0.84,1.63
7.818,1.45,1.45,-0.95,2.26
7.828,1.91,3.44,-0.90,4.03
7.838,2.27,4.48,-0.63,5.06
7.848,2.44,5.70,-0.39,6.22
7.858,2.22,6.89,-0.36,7.25
7.868,1.87,7.62,-0.14,7.85
7.878,1.24,8.02,0.45,8.13
7.888,1.41,8.49,1.19,8.69
7.898,2.38,8.50,1.54,8.96
7.908,2.28,8.25,1.43,8.68
7.918,1.47,8.23,0.94,8.41
7.928,0.41,7.85,0.24,7.86
7.938,-0.60,6.51,-0.08,6.54
7.948,-1.25,4.30,-0.14,4.48
7.958,-1.46,2.11,0.11,2.56
7.968,-1.50,0.50,0.84,1.79
7.978,-1.11,-0.93,1.43,2.03
7.988,-0.14,-2.27,1.11,2.53
7.998,1.39,-4.48,-0.45,4.71
8.008,2.52,-7.73,-1.20,8.22
8.018,3.13,-9.86,-0.95,10.39
8.028,3.41,-11.26,-1.28,11.84
8.038,3.21,-11.85,-1.56,12.38
8.048,2.80,-9.25,-1.16,9.74
8.058,1.76,-4.29,-1.52,4.88
8.068,1.17,0.30,-1.69,2.08
8.078,1.15,4.64,-1.08,4.90
8.088,0.98,8.44,-0.58,8.52
8.098,0.34,11.48,0.24,11.48
8.108,-0.89,11.79,2.73,12.13
8.118,-0.98,8.97,5.47,10.55
8.128,-1.65,4.31,6.46,7.94
8.138,-3.32,-0.41,5.97,6.85
8.148,-4.75,-3.17,5.12,7.67
8.158,-5.33,-4.41,4.16,8.08
8.168,-4.66,-4.94,3.20,7.51
8.178,-2.51,-4.84,2.29,5.91
8.188,-0.30,-4.60,1.04,4.72
8.198,0.80,-3.84,0.13,3.93
8.208,1.01,-2.68,-0.86,2.99
8.218,1.13,-1.54,-2.24,2.94
8.228,1.50,-0.96,-3.11,3.58
8.238,1.75,-0.65,-2.92,3.47
8.248,1.76,0.10,-1.36,2.22
8.258,1.70,1.13,0.61,2.13
8.268,1.44,1.94,2.04,3.16
8.278,1.04,2.08,2.59,3.48
8.288,0.77,1.91,2.06,2.91
8.297,0.59,1.48,0.90,1.83
8.307,0.35,0.86,-0.32,0.99
8.318,0.09,0.46,-1.80,1.86
8.328,-0.23,0.04,-3.29,3.30
8.337,-0.71,-0.53,-4.06,4.16
8.348,-1.19,-0.98,-4.12,4.40
8.358,-1.43,-1.21,-3.65,4.10
8.367,-1.45,-0.93,-2.30,2.88
8.378,-1.11,0.41,0.09,1.18
8.387,-0.76,2.97,2.47,3.94
8.398,-0.79,5.37,3.48,6.45
8.408,-0.97,6.65,2.32,7.11
8.418,-2.19,7.66,1.65,8.13
8.427,-4.62,8.37,1.88,9.74
8.437,-6.12,6.67,1.17,9.13
8.447,-3.69,-1.96,0.62,4.23
8.458,-2.06,-7.19,0.85,7.53
8.467,-1.97,-7.08,0.91,7.40
8.478,-1.61,-5.44,0.28,5.68
8.487,-0.73,-4.67,-0.69,4.77
8.498,0.14,-4.53,-1.02,4.65
8.507,0.50,-4.40,-0.81,4.51
8.517,0.52,-3.95,-0.38,4.00
8.527,0.62,-3.08,-0.09,3.14
8.537,0.99,-2.32,-0.34,2.55
8.547,1.33,-1.66,-0.58,2.21
8.557,1.63,-0.62,-0.47,1.80
8.567,1.62,0.60,-0.01,1.73
8.577,1.02,1.73,0.41,2.05
8.587,-0.09,2.31,0.77,2.43
8.597,-1.28,2.22,1.23,2.85
8.607,-2.06,1.93,1.28,3.10
8.617,-2.03,0.76,0.80,2.31
8.627,-1.73,-0.81,0.41,1.96
8.637,-1.35,-1.85,-0.03,2.29
8.647,-0.67,-2.41,-0.57,2.56
8.657,-0.03,-3.01,-1.08,3.20
8.667,0.40,-3.56,-1.30,3.81
8.677,0.46,-3.81,-1.40,4.09
8.687,0.08,-3.57,-1.18,3.76
8.697,-0.42,-2.91,-0.70,3.02
8.707,-0.80,-2.08,-0.16,2.24
8.717,-0.98,-1.52,0.38,1.85
8.727,-0.92,-1.14,0.59,1.58
8.737,-0.78,-0.99,0.45,1.34
8.747,-0.55,-0.88,0.12,1.04
8.757,-0.26,-0.80,-0.11,0.85
8.767,-0.26,-0.65,-0.40,0.81
8.777,-0.38,-0.47,-0.77,0.98
8.787,-0.38,-0.27,-1.04,1.14
8.797,-0.47,0.15,-1.09,1.19
8.807,-0.58,0.24,-1.21,1.37
8.817,-0.54,0.18,-1.30,1.41
8.827,-0.58,0.18,-1.35,1.48
8.837,-0.62,0.17,-1.54,1.67
8.847,-0.56,0.05,-1.66,1.75
8.857,-0.25,-0.09,-1.88,1.90
8.867,0.41,-0.12,-1.61,1.67
8.877,1.03,-0.05,-1.13,1.53
8.887,1.40,-0.13,-1.13,1.81
8.897,1.52,-0.23,-1.35,2.04
8.907,1.58,-0.48,-1.44,2.19
8.917,1.76,-0.73,-1.36,2.34
8.927,1.46,-0.62,-1.33,2.07
8.937,0.98,-0.18,-1.11,1.50
8.946,0.57,0.19,-1.04,1.20
8.957,0.46,0.27,-1.03,1.16
8.967,0.24,0.68,-1.08,1.30
8.977,0.33,2.12,-1.16,2.44
8.987,0.62,2.67,-1.06,2.94
8.997,0.90,3.54,-1.25,3.86
9.007,1.14,4.61,-1.32,4.93
9.017,1.07,5.36,-1.02,5.56
9.027,0.96,5.95,-0.69,6.06
9.037,0.82,6.60,-0.51,6.67
9.047,0.62,7.28,-0.36,7.31
9.056,0.27,7.80,-0.16,7.81
9.067,-0.25,7.73,0.01,7.73
9.077,-0.75,6.63,0.47,6.69
9.086,-1.28,5.01,1.00,5.27
9.097,-1.95,3.47,1.29,4.18
9.106,-2.73,1.99,1.28,3.62
9.117,-3.35,0.26,1.26,3.59
9.126,-3.30,-1.12,1.03,3.63
9.136,-2.30,-2.36,0.31,3.31
9.146,-0.48,-4.50,-0.60,4.57
9.156,1.44,-6.44,-0.74,6.64
9.166,2.99,-7.62,-0.69,8.22
9.176,3.69,-8.10,-1.37,9.00
9.186,4.17,-8.30,-2.32,9.57
9.196,4.40,-8.28,-2.15,9.62
9.206,4.31,-6.01,-1.65,7.58
9.216,3.83,-2.97,-1.49,5.07
9.226,3.98,0.78,-1.19,4.23
9.236,4.98,5.79,-0.50,7.65
9.246,5.33,10.54,0.44,11.82
9.256,3.72,11.35,1.54,12.04
9.266,1.34,8.19,3.30,8.93
9.276,-0.86,5.46,5.12,7.53
9.286,-2.65,2.98,5.69,6.95
9.296,-4.37,0.69,4.65,6.42
9.306,-5.44,-1.09,3.22,6.41
9.316,-5.65,-2.50,1.94,6.47
9.326,-5.19,-3.29,1.25,6.27
9.336,-4.09,-3.84,0.97,5.69
9.346,-2.63,-4.24,0.82,5.05
9.356,-1.19,-4.58,0.44,4.75
9.366,-0.14,-4.52,-0.52,4.55
9.376,0.40,-3.75,-2.22,4.38
9.386,0.87,-3.26,-3.78,5.07
9.396,1.24,-2.65,-3.99,4.95
9.406,1.74,-1.80,-2.49,3.53
9.416,2.45,-0.61,-0.07,2.53
9.426,3.31,0.76,2.01,3.95
9.436,4.25,1.47,3.43,5.66
9.446,4.77,1.15,3.81,6.21
9.456,4.39,1.09,3.01,5.43
9.466,3.77,0.66,1.62,4.15
9.476,2.84,-0.30,0.05,2.85
9.486,1.71,-1.09,-1.62,2.59
9.496,0.57,-1.61,-2.94,3.40
9.506,-0.51,-1.56,-3.48,3.85
9.516,-1.42,-0.93,-3.67,4.04
9.526,-1.97,-0.10,-3.83,4.31
9.536,-2.13,0.87,-3.81,4.46
9.546,-2.00,2.14,-2.81,4.06
9.556,-2.03,4.08,0.23,4.56
9.566,-2.31,6.37,3.15,7.47
9.576,-2.07,8.22,3.34,9.11
9.586,-0.37,8.73,1.79,8.92
9.596,0.92,8.31,0.40,8.37
9.606,-0.25,7.71,0.01,7.71
9.616,-2.44,5.23,0.03,5.77
9.625,-3.71,1.00,-0.26,3.85
9.636,-4.64,-1.81,-0.80,5.04
9.646,-5.22,-3.26,-1.23,6.28
9.656,-5.03,-3.54,-1.29,6.28
9.666,-3.90,-3.38,-1.08,5.27
9.676,-2.42,-3.74,-0.77,4.52
9.686,-1.19,-4.34,-0.08,4.50
9.696,-0.34,-4.66,0.68,4.72
9.706,0.21,-4.67,1.06,4.80
9.716,0.52,-4.36,1.19,4.55
9.726,0.67,-3.55,1.16,3.79
9.736,0.94,-2.65,0.92,2.96
9.746,1.22,-2.10,0.43,2.46
9.755,1.45,-1.76,-0.30,2.30
9.766,1.65,-1.04,-0.89,2.15
9.776,1.34,-0.54,-1.04,1.78
9.785,0.40,-0.34,-0.41,0.66
9.796,-0.78,-0.10,0.45,0.91
9.805,-1.62,0.17,0.58,1.73
9.816,-1.96,0.34,-0.05,1.99
9.825,-1.62,-0.22,-0.62,1.75
9.836,-1.12,-1.32,-0.33,1.76
9.845,-0.47,-1.94,0.01,1.99
9.855,-0.09,-2.49,0.12,2.50
9.865,-0.22,-2.87,0.07,2.88
9.875,-0.69,-2.93,-0.10,3.01
9.885,-1.26,-2.58,-0.34,2.89
9.895,-1.75,-1.87,-0.47,2.61
9.905,-1.99,-1.14,-0.30,2.31
9.915,-2.02,-0.80,0.07,2.18
9.925,-1.93,-0.47,0.33,2.02
9.935,-1.98,-0.04,0.28,2.00
9.945,-2.08,0.45,0.05,2.13
9.955,-2.19,0.88,-0.43,2.40
9.965,-2.24,1.17,-1.02,2.73
9.975,-2.09,1.40,-1.40,2.88
9.985,-1.79,0.83,-1.51,2.49
9.995,-1.60,0.00,-1.37,2.10
10.005,-1.42,-0.18,-1.24,1.90
10.015,-1.19,-0.27,-1.60,2.02
10.025,-0.85,-0.34,-2.30,2.47
10.035,-0.49,-0.23,-2.70,2.75
10.045,0.03,-0.18,-2.62,2.62
10.055,0.72,-0.24,-2.39,2.51
10.065,1.30,0.20,-2.17,2.54
10.075,1.72,0.96,-1.87,2.71
10.085,2.02,1.53,-1.65,3.03
10.095,2.25,1.78,-1.59,3.28
10.105,2.25,1.82,-1.79,3.41
10.115,2.17,2.20,-1.63,3.49
10.125,2.03,2.46,-1.36,3.47
10.135,1.74,2.72,-1.20,3.44
10.145,1.14,3.07,-0.98,3.42
10.155,0.14,3.62,-0.34,3.64
10.165,-1.11,4.28,0.85,4.50
10.175,-1.35,4.85,1.74,5.33
10.185,-0.35,5.28,2.28,5.77
10.195,0.46,5.69,2.72,6.32
10.205,0.48,5.02,2.74,5.74
10.215,0.16,3.11,2.36,3.91
10.225,-0.27,1.49,1.45,2.09
10.235,-0.61,0.45,0.53,0.92
10.245,-0.73,-0.72,-0.22,1.05
10.255,-0.08,-2.00,-0.60,2.09
10.265,1.60,-4.20,-1.70,4.81
10.275,2.30,-5.71,-2.98,6.84
10.285,2.42,-6.41,-2.39,7.26
10.295,3.04,-6.52,-1.46,7.34
10.304,4.27,-5.85,-0.34,7.25
10.315,5.35,-4.26,0.84,6.89
10.325,6.20,-2.41,1.15,6.75
10.335,7.01,-0.18,1.15,7.10
10.345,7.50,3.03,0.29,8.09
10.355,6.75,6.37,-0.89,9.33
10.365,4.51,7.85,-1.79,9.23
10.375,1.60,6.99,-1.80,7.40
10.384,-1.14,4.72,-0.51,4.88
10.395,-3.40,2.87,1.03,4.57
10.404,-4.87,1.71,2.07,5.56
10.415,-5.50,0.90,2.46,6.09
10.425,-5.58,-0.00,2.53,6.13
10.434,-4.97,-0.83,2.76,5.74
10.444,-3.68,-1.56,2.86,4.91
10.454,-1.85,-2.27,2.65,3.95
10.464,-0.20,-2.87,2.46,3.79
10.474,0.87,-3.55,2.12,4.23
10.484,1.37,-4.26,1.08,4.60
10.495,1.25,-4.41,-0.61,4.62
10.504,0.69,-4.10,-1.88,4.57
10.514,0.07,-3.79,-1.62,4.12
10.524,-0.51,-3.37,-0.36,3.43
10.535,-0.92,-2.79,0.70,3.02
10.544,-0.97,-2.24,1.47,2.85
10.554,-0.94,-1.76,2.14,2.92
10.564,-0.90,-1.39,2.06,2.64
10.574,-0.83,-1.37,1.40,2.13
10.584,-0.77,-1.47,0.32,1.69
10.594,-0.71,-1.39,-0.72,1.72
10.604,-0.68,-1.23,-1.64,2.16
10.614,-0.54,-1.32,-2.45,2.83
10.624,-0.32,-1.51,-2.85,3.24
10.634,-0.16,-1.52,-2.87,3.25
10.644,-0.12,-1.15,-2.75,2.99
10.654,-0.11,-0.40,-2.70,2.73
10.664,0.04,0.57,-2.77,2.83
10.674,0.45,1.39,-2.69,3.06
10.684,0.91,2.12,-2.16,3.16
10.694,1.20,3.50,-0.67,3.76
10.704,1.22,6.01,2.08,6.48
10.714,1.29,9.59,4.13,10.52
10.724,2.45,12.93,3.52,13.62
10.735,4.18,14.87,0.95,15.47
10.745,3.23,15.11,-0.68,15.46
10.755,-1.17,13.87,-0.41,13.93
10.764,-4.52,8.72,-1.14,9.89
10.774,-4.37,1.97,-2.53,5.42
10.784,-4.35,-1.49,-2.26,5.12
10.794,-4.78,-2.96,-1.53,5.83
10.804,-4.97,-3.00,-0.87,5.87
10.814,-4.28,-3.19,-0.34,5.35
10.824,-3.47,-4.41,0.26,5.62
10.834,-2.98,-6.20,0.83,6.93
10.844,-2.61,-7.17,1.32,7.74
10.854,-2.11,-6.35,1.84,6.94
10.864,-1.32,-5.13,2.15,5.72
10.874,-0.45,-4.29,2.05,4.77
10.884,0.40,-3.66,1.76,4.08
10.894,1.24,-3.13,1.30,3.61
10.904,1.94,-2.56,0.91,3.34
10.914,2.39,-2.01,0.57,3.17
10.924,2.59,-1.39,-0.04,2.94
10.934,2.38,-0.69,-1.06,2.70
10.944,1.76,-0.17,-1.84,2.55
10.954,0.84,0.10,-2.07,2.23
10.964,0.13,-0.32,-1.66,1.69
10.974,0.02,-1.11,-1.04,1.52
10.984,0.10,-1.54,-0.68,1.68
10.994,-0.19,-1.63,-0.39,1.69
11.004,-0.50,-1.57,-0.16,1.65
11.014,-0.28,-1.69,-0.09,1.72
11.024,0.30,-2.12,0.11,2.14
11.034,0.84,-2.58,-0.32,2.73
11.043,0.97,-2.79,-0.72,3.04
11.054,0.63,-2.71,-0.69,2.86
11.064,0.12,-2.37,-0.82,2.51
11.073,-0.27,-1.91,-1.04,2.19
11.083,-0.40,-1.38,-0.79,1.64
11.094,-0.38,-1.09,-0.29,1.19
11.103,-0.38,-0.78,0.03,0.86
11.113,-0.39,-0.46,0.03,0.61
11.124,-0.24,-0.29,-0.28,0.47
11.134,0.06,-0.06,-0.51,0.52
11.144,0.32,0.05,-0.62,0.70
11.154,0.43,0.41,-0.58,0.82
11.163,0.51,0.51,-0.76,1.05
11.173,0.44,0.26,-1.19,1.29
11.184,0.21,-0.10,-1.56,1.58
11.193,-0.15,-0.46,-1.82,1.88
11.203,-0.57,-0.93,-1.75,2.07
11.213,-0.77,-1.33,-1.60,2.22
11.223,-0.64,-1.50,-1.61,2.30
11.233,-0.31,-1.34,-1.75,2.22
11.243,-0.07,-1.06,-1.74,2.04
11.253,0.05,-0.77,-1.60,1.77
11.263,0.29,-0.62,-1.89,2.01
11.273,0.69,-0.76,-2.40,2.61
11.283,1.08,-0.82,-2.39,2.75
11.293,1.23,-1.06,-2.08,2.64
11.303,0.86,-1.17,-1.74,2.27
11.313,0.20,-0.97,-1.42,1.73
11.323,-0.31,-0.51,-1.06,1.21
11.333,-0.55,0.02,-0.66,0.86
11.343,-1.03,1.44,-0.56,1.86
11.353,-0.91,2.40,-0.14,2.57
11.363,-0.96,3.54,0.11,3.67
11.373,-1.23,5.21,0.31,5.36
11.383,-1.45,7.50,0.14,7.64
11.393,-1.36,10.26,-0.89,10.39
11.403,-0.90,12.24,-1.83,12.41
11.414,-0.52,12.85,-1.24,12.92
11.423,-0.52,11.56,0.78,11.60
11.433,-0.68,8.96,2.17,9.24
11.443,-0.81,6.26,2.77,6.89
11.453,-0.73,3.52,3.00,4.68
11.463,-0.51,1.21,2.97,3.25
11.473,-0.28,-0.44,2.81,2.86
11.483,0.05,-1.84,2.53,3.13
11.493,0.45,-3.31,1.99,3.89
11.503,1.04,-4.51,1.12,4.77
11.513,1.79,-6.86,-0.29,7.10
11.523,2.37,-9.91,-1.75,10.33
11.533,3.04,-11.67,-2.74,12.36
11.543,3.23,-12.25,-3.61,13.17
11.553,2.25,-10.56,-3.57,11.37
11.563,1.05,-6.54,-2.92,7.23
11.573,0.78,-2.47,-2.44,3.56
11.583,1.27,0.87,-2.61,3.03
11.593,1.41,4.39,-2.29,5.14
11.603,0.60,7.89,-1.46,8.04
11.613,-0.82,10.95,-0.07,10.98
11.623,-2.24,11.29,2.81,11.85
11.633,-2.36,9.10,6.49,11.42
11.643,-1.96,6.48,8.42,10.80
11.653,-2.41,2.83,8.21,9.01
11.663,-2.80,-0.58,6.76,7.34
11.673,-2.60,-2.45,4.64,5.86
11.683,-1.99,-2.92,2.73,4.47
11.693,-0.71,-2.95,1.30,3.30
11.703,0.75,-3.24,0.12,3.33
11.713,1.53,-2.88,-0.82,3.36
11.723,1.75,-1.68,-2.03,3.16
11.733,2.03,-0.80,-3.82,4.39
11.743,2.56,-0.91,-4.96,5.66
11.752,2.70,-0.97,-4.20,5.08
11.762,2.51,-0.44,-2.06,3.28
11.772,2.43,0.29,0.20,2.46
11.783,2.46,0.35,2.27,3.37
11.792,2.19,0.18,3.69,4.29
11.803,1.63,-0.03,3.62,3.97
11.812,1.22,-0.25,2.40,2.70
11.822,0.97,-0.64,0.73,1.37
11.833,0.71,-1.00,-0.85,1.49
11.842,0.43,-1.33,-2.54,2.90
11.853,0.11,-1.79,-4.06,4.44
11.862,-0.32,-2.27,-4.73,5.25
11.872,-0.76,-2.39,-4.44,5.10
11.882,-0.90,-1.76,-3.29,3.84
11.892,-0.78,-0.11,-1.17,1.41
11.902,-0.60,3.13,1.12,3.38
11.912,0.50,7.06,3.03,7.70
11.922,2.59,9.16,2.68,9.89
11.932,2.23,9.38,1.19,9.71
11.943,-1.16,9.08,0.34,9.16
11.952,-4.32,8.22,-0.06,9.28
11.962,-4.91,3.96,-0.49,6.33
11.972,-3.46,-2.34,-0.31,4.19
11.982,-3.18,-4.55,0.02,5.56
11.992,-3.03,-5.31,-0.13,6.11
12.002,-2.60,-5.69,-0.90,6.32
12.012,-2.47,-6.11,-1.43,6.74
12.022,-2.40,-6.88,-1.45,7.43
12.032,-2.35,-7.70,-1.02,8.11
12.042,-2.09,-7.60,-0.46,7.89
12.052,-1.39,-6.48,0.02,6.63
12.062,-0.30,-4.96,0.28,4.97
12.072,1.08,-2.91,0.45,3.14
12.082,2.43,-0.69,0.68,2.62
12.092,3.37,1.39,0.94,3.77
12.102,3.49,3.09,0.84,4.74
12.112,2.58,4.10,0.46,4.87
12.122,1.12,4.41,0.59,4.59
12.132,-0.48,3.26,1.06,3.46
12.142,-1.05,0.57,0.98,1.54
12.152,-1.50,-1.27,0.98,2.19
12.162,-2.10,-2.61,1.28,3.59
12.172,-2.47,-3.64,1.11,4.54
12.182,-2.37,-3.93,0.35,4.61
12.192,-1.81,-3.52,-0.39,3.97
12.202,-1.03,-2.93,-1.09,3.30
12.212,-0.62,-2.44,-1.16,2.77
12.222,-0.69,-1.93,-0.51,2.11
12.232,-1.06,-1.45,0.29,1.82
12.242,-1.47,-0.89,0.91,1.94
12.252,-1.71,-0.53,1.10,2.10
12.262,-1.64,-0.32,0.96,1.92
12.272,-1.43,-0.16,0.45,1.51
12.282,-1.28,0.05,-0.05,1.28
12.292,-1.05,0.55,-0.35,1.23
12.302,-0.92,0.94,-0.60,1.45
12.312,-0.89,1.03,-0.90,1.63
12.322,-0.95,0.11,-1.09,1.45
12.332,-1.18,-0.89,-1.18,1.89
12.342,-1.44,-1.45,-1.28,2.42
12.352,-1.67,-1.93,-1.39,2.91
12.362,-1.82,-2.60,-1.24,3.41
12.372,-1.76,-3.12,-1.08,3.74
12.382,-1.42,-2.80,-1.22,3.37
12.392,-1.00,-2.09,-1.44,2.73
12.401,-0.88,-1.63,-1.44,2.34
12.411,-0.91,-1.31,-1.60,2.26
12.421,-0.43,-0.69,-1.96,2.12
12.432,0.51,0.04,-1.87,1.94
12.442,1.59,0.54,-1.15,2.04
12.452,2.46,0.73,-0.58,2.63
12.462,2.92,0.98,-0.60,3.14
12.472,2.94,1.20,-0.34,3.20
12.481,2.64,1.06,-0.34,2.86
12.492,2.29,0.81,-0.70,2.53
12.501,2.14,0.76,-1.07,2.51
12.511,2.21,0.98,-1.38,2.78
12.521,2.23,1.00,-1.99,3.15
12.531,1.95,0.83,-2.81,3.52
12.541,1.63,1.01,-3.22,3.75
12.551,1.48,1.37,-3.43,3.98
12.561,1.53,1.71,-3.69,4.35
12.571,1.67,2.82,-4.13,5.27
12.581,1.72,3.44,-4.07,5.60
12.591,1.40,3.48,-3.06,4.84
12.601,0.95,3.52,-1.83,4.08
12.611,0.74,4.41,-1.09,4.60
12.621,1.16,5.85,-0.54,5.99
12.631,1.93,7.27,0.80,7.57
12.641,1.57,7.34,1.53,7.66
12.651,-0.32,5.99,0.82,6.05
12.661,-2.25,5.38,0.17,5.84
12.671,-3.19,5.49,-0.18,6.35
12.681,-2.47,4.65,-0.70,5.32
12.691,-1.38,2.80,-0.32,3.14
12.701,-0.74,0.87,0.28,1.17
12.711,-0.05,-0.43,-0.02,0.43
12.721,0.84,-1.50,-0.93,1.95
12.731,1.86,-2.75,-1.61,3.69
12.741,2.67,-3.86,-1.70,4.99
12.751,3.12,-4.69,-1.32,5.78
12.761,3.37,-5.20,-0.75,6.24
12.771,3.51,-5.33,0.03,6.38
12.781,3.59,-5.10,0.75,6.28
12.791,3.60,-4.62,1.25,5.99
12.801,3.58,-4.37,1.69,5.90
12.811,3.45,-4.13,1.95,5.73
12.821,3.16,-3.63,1.88,5.16
12.831,2.54,-2.90,1.64,4.20
12.841,1.59,-2.27,1.23,3.03
12.851,0.40,-1.78,0.68,1.95
12.861,-0.84,-1.27,-0.02,1.53
12.871,-2.04,-0.63,-0.76,2.26
12.881,-3.09,0.17,-1.17,3.31
12.891,-3.38,1.03,-0.94,3.65
12.901,-2.37,1.64,0.24,2.89
12.911,-1.01,2.05,1.80,2.92
12.921,-0.09,1.85,3.27,3.76
12.931,-0.00,1.14,4.32,4.47
12.941,-0.28,0.56,4.53,4.57
12.951,-0.32,-0.05,4.23,4.24
12.961,-0.19,-0.50,3.87,3.90
12.971,0.02,-0.56,3.38,3.42
12.981,0.34,-0.33,2.70,2.74
12.991,0.53,-0.42,1.79,1.91
13.000,0.67,-0.93,0.75,1.37
13.011,0.65,-1.66,-0.19,1.79
13.021,0.25,-1.68,-1.17,2.06
13.031,-0.15,-0.93,-2.10,2.31
13.041,-0.45,-0.30,-2.55,2.61
13.050,-0.52,-0.03,-2.57,2.63
13.061,-0.30,-0.10,-2.03,2.05
13.071,0.18,-0.46,-1.45,1.53
13.081,0.62,-0.47,-0.87,1.17
13.090,0.82,-0.37,-0.09,0.91
13.100,0.92,-0.49,0.56,1.18
13.110,0.98,-0.61,1.03,1.54
13.121,0.99,-0.62,1.56,1.95
13.131,1.00,-0.56,1.98,2.29
13.141,0.95,-0.68,2.16,2.46
13.151,0.66,-0.38,2.25,2.38
13.161,0.50,-0.13,1.88,1.95
13.171,0.65,0.01,1.31,1.47
13.180,0.86,0.05,0.75,1.14
13.190,0.98,-0.07,0.27,1.02
13.200,1.09,-0.36,-0.17,1.16
13.211,1.22,-0.71,-0.54,1.51
13.220,1.39,-1.02,-0.92,1.96
13.230,1.58,-1.25,-1.20,2.34
13.240,1.81,-1.52,-1.41,2.75
13.250,2.03,-1.78,-1.56,3.12
13.260,2.33,-2.00,-1.61,3.46
13.271,2.82,-2.20,-1.53,3.89
13.280,3.42,-2.39,-1.37,4.39
13.290,4.06,-2.85,-1.15,5.09
13.300,4.20,-2.90,-0.85,5.18
13.310,3.87,-2.61,-0.88,4.75
13.320,3.19,-2.83,-1.49,4.52
13.330,2.26,-2.97,-1.56,4.05
13.340,1.87,-2.68,-1.51,3.60
13.350,1.91,-1.14,-2.10,3.06
13.360,1.80,0.44,-3.10,3.61
13.371,1.39,2.83,-3.87,4.99
13.380,0.16,6.65,-2.65,7.16
13.390,-0.86,10.98,1.08,11.07
13.400,-0.90,14.69,5.95,15.87
13.411,-0.46,13.70,8.61,16.19
13.420,0.53,6.11,8.35,10.36
13.430,0.40,1.20,6.42,6.54
13.440,-0.21,-1.09,4.31,4.45
13.450,-0.87,-2.32,3.54,4.32
13.460,-2.11,-3.33,3.12,5.03
13.470,-3.62,-4.20,2.59,6.12
13.480,-5.07,-4.89,2.05,7.34
13.490,-6.00,-5.17,1.64,8.09
13.500,-6.23,-4.93,1.12,8.02
13.510,-6.64,-4.56,1.22,8.14
13.520,-6.90,-3.79,1.25,7.97
13.530,-6.42,-2.83,0.09,7.01
13.540,-5.17,-1.22,-1.96,5.66
13.550,-3.72,0.92,-3.17,4.98
13.560,-2.45,2.83,-2.99,4.79
13.570,-1.64,3.75,-2.28,4.68
13.580,-1.08,2.79,-1.69,3.44
13.590,-0.37,1.20,-1.89,2.27
13.600,0.54,-0.28,-1.96,2.06
13.610,1.51,-1.58,-1.40,2.59
13.620,1.59,-2.53,-0.38,3.01
13.630,0.57,-3.17,0.37,3.25
13.640,-0.87,-2.84,0.50,3.01
13.650,-2.35,-1.39,0.16,2.73
13.660,-3.45,0.27,-0.32,3.48
13.670,-3.78,1.56,-0.59,4.13
13.680,-3.36,2.41,-0.76,4.20
13.690,-2.44,2.79,-1.68,4.07
13.700,-1.23,2.74,-2.82,4.12
13.710,-0.15,2.43,-3.48,4.25
13.720,0.70,2.08,-3.61,4.22
13.730,1.21,1.59,-3.72,4.23
13.740,1.43,0.93,-3.76,4.13
13.750,1.52,0.13,-3.57,3.88
13.760,1.68,-0.55,-3.40,3.83
13.770,1.98,-0.92,-3.38,4.02
13.780,2.39,-1.12,-3.55,4.42
13.790,2.78,-1.20,-3.68,4.76
13.799,3.06,-1.17,-3.59,4.86
13.810,3.35,-1.03,-3.42,4.90
13.820,3.65,-0.93,-3.28,4.99
13.830,3.98,-0.96,-3.07,5.11
13.839,4.38,-1.04,-2.85,5.33
13.850,4.74,-1.17,-2.65,5.55
13.859,5.00,-1.38,-2.37,5.70
13.870,5.11,-1.65,-2.00,5.73
13.879,5.12,-1.71,-1.57,5.62
13.889,4.95,-1.47,-1.27,5.31
13.899,4.61,-1.18,-1.20,4.91
13.909,4.14,-1.06,-1.34,4.48
13.919,3.59,-1.15,-1.37,4.01
13.929,3.08,-1.39,-1.37,3.64
13.939,2.58,-1.76,-1.31,3.39
13.949,1.96,-2.16,-1.00,3.09
13.959,1.27,-2.43,-0.52,2.79
13.969,0.64,-2.37,0.03,2.45
13.979,0.01,-1.81,0.40,1.85
13.989,-0.84,-0.54,0.45,1.10
13.999,-2.16,1.58,0.16,2.68
14.009,-3.98,4.49,-0.15,6.00
14.019,-5.84,6.87,-0.61,9.04
14.029,-6.69,6.83,-1.63,9.70
14.039,-5.38,4.78,-2.31,7.56
14.049,-2.28,1.58,-2.04,3.44
14.059,0.15,-0.28,0.47,0.57
14.069,1.26,-0.56,4.22,4.44
14.079,1.05,-0.42,3.66,3.83
14.089,1.65,2.15,2.22,3.50
14.099,3.30,4.96,2.61,6.50
14.109,5.40,7.32,3.81,9.86
14.119,7.77,8.01,6.24,12.79
14.129,9.10,7.86,7.05,13.94
14.139,8.46,6.14,4.67,11.45
14.149,7.48,3.27,2.52,8.55
14.159,6.48,0.53,1.08,6.59
14.169,4.87,-1.32,-0.01,5.05
14.179,3.36,-2.08,-1.36,4.18
14.189,1.47,-1.33,-2.73,3.38
14.199,-0.57,0.10,-3.83,3.88
14.209,-1.76,-0.26,-4.49,4.83
14.219,-2.59,-1.28,-4.36,5.23
14.229,-2.30,-2.29,-3.36,4.67
14.239,-1.08,-2.46,-1.07,2.89
14.249,0.07,-1.54,1.56,2.19
14.259,0.85,-0.97,3.38,3.62
14.269,1.21,-1.03,4.42,4.69
14.279,1.17,-1.45,4.86,5.20
14.289,0.68,-1.47,4.22,4.53
14.299,0.55,-1.62,2.47,3.00
14.309,0.62,-1.31,0.39,1.50
14.319,0.70,-1.49,-1.61,2.31
14.329,0.69,-1.77,-3.16,3.69
14.339,0.69,-2.00,-4.07,4.59
14.349,0.78,-2.08,-4.15,4.71
14.359,1.00,-1.93,-3.55,4.16
14.369,1.24,-1.52,-2.60,3.26
14.379,1.50,-0.73,-1.56,2.28
14.389,1.78,0.65,-0.45,1.94
14.399,1.94,3.00,0.74,3.65
14.409,1.94,6.35,1.70,6.85
14.419,1.79,10.01,2.11,10.38
14.429,1.86,12.19,1.83,12.46
14.440,2.64,11.95,1.22,12.30
14.449,2.52,8.18,-0.12,8.56
14.459,0.72,5.50,-1.21,5.68
14.469,-0.44,4.50,-1.38,4.73
14.479,-0.27,3.24,-1.11,3.43
14.489,-0.18,1.83,-0.20,1.85
14.499,-0.97,0.83,0.87,1.55
14.509,-2.17,0.61,1.50,2.70
14.519,-2.89,0.76,1.72,3.45
14.528,-2.36,0.80,2.03,3.21
14.539,-0.96,0.98,2.23,2.61
14.549,0.42,0.90,1.96,2.20
14.559,1.36,0.04,1.51,2.03
14.569,1.42,-1.51,1.13,2.35
14.579,0.74,-3.42,0.95,3.62
14.588,-0.07,-5.10,1.08,5.22
14.598,-0.65,-6.31,1.09,6.43
14.608,-1.11,-6.85,0.75,6.98
14.618,-1.48,-6.81,0.08,6.97
14.629,-1.69,-6.46,-0.67,6.71
14.638,-1.74,-5.94,-1.16,6.30
14.648,-1.53,-5.15,-1.44,5.57
14.659,-1.01,-3.98,-1.68,4.43
14.668,-0.37,-2.26,-1.56,2.77
14.678,0.21,-0.09,-0.80,0.83
14.688,0.57,2.08,0.60,2.23
14.698,1.18,3.65,1.01,3.97
14.708,1.55,4.15,0.24,4.44
14.718,1.76,3.39,-0.11,3.82
14.728,1.47,1.53,0.31,2.14
14.738,0.61,0.21,0.88,1.09
14.748,-0.27,-1.02,0.89,1.38
14.758,-1.03,-2.00,0.42,2.28
14.768,-1.31,-2.11,0.09,2.48
14.778,-1.26,-2.06,-0.33,2.44
14.788,-0.95,-1.95,-0.98,2.38
14.798,-0.86,-1.94,-1.56,2.63
14.808,-0.66,-1.72,-1.36,2.29
14.818,-0.31,-1.59,-0.84,1.83
14.828,0.12,-1.47,-0.28,1.50
14.838,0.50,-1.30,-0.03,1.39
14.848,0.81,-1.14,-0.14,1.40
14.858,1.08,-1.11,-0.43,1.61
14.868,1.20,-0.99,-0.89,1.79
14.878,1.24,-0.67,-1.31,1.93
14.888,1.09,-0.44,-1.69,2.05
14.898,0.84,-0.48,-2.15,2.36
14.908,0.66,-0.62,-2.26,2.43
14.918,0.65,-0.76,-2.21,2.43
14.928,0.85,-0.77,-2.30,2.57
14.938,1.18,-0.78,-2.21,2.62
14.948,1.45,-0.94,-1.87,2.55
14.958,1.70,-1.12,-1.50,2.52
14.968,1.77,-1.29,-1.22,2.50
14.978,1.90,-1.48,-1.21,2.70
14.988,1.69,-1.42,-1.38,2.60
14.998,1.20,-1.20,-1.37,2.17
15.008,0.65,-0.98,-1.38,1.81
15.018,0.12,-0.63,-1.38,1.52
15.028,-0.06,0.21,-1.25,1.27
15.038,-0.03,0.91,-1.08,1.41
15.048,-0.05,2.11,-0.76,2.24
15.058,-0.47,3.00,-0.30,3.05
15.068,-0.97,3.98,0.23,4.10
15.078,-1.26,4.88,0.66,5.08
15.088,-0.92,6.40,1.02,6.54
15.098,-0.22,9.10,1.68,9.26
15.108,0.68,9.81,2.68,10.19
15.118,0.40,7.84,3.04,8.42
15.128,-0.82,6.90,2.56,7.40
15.138,-1.97,6.89,1.55,7.34
15.148,-2.82,6.18,0.74,6.83
15.158,-2.97,4.74,0.58,5.62
15.168,-2.51,2.91,0.55,3.88
15.178,-1.77,1.19,0.18,2.14
15.188,-0.95,-0.10,-0.32,1.01
15.198,-0.13,-0.85,-0.46,0.98
15.208,0.74,-1.46,-0.43,1.69
15.218,1.70,-2.21,-0.74,2.88
15.228,2.52,-3.28,-1.12,4.28
15.237,3.20,-4.95,-1.44,6.07
15.247,3.80,-6.60,-1.00,7.68
15.257,4.00,-6.59,0.17,7.71
15.267,3.37,-5.62,0.87,6.61
15.277,2.35,-3.23,2.03,4.48
15.287,1.61,-1.36,2.17,3.02
15.297,0.35,0.24,1.19,1.27
15.307,-0.99,1.96,0.45,2.24
15.317,-1.66,3.84,0.75,4.25
15.327,-1.79,4.35,1.64,4.98
15.337,-1.65,3.47,2.17,4.42
15.347,-1.91,2.25,2.88,4.13
15.357,-2.01,1.23,3.46,4.19
15.367,-1.72,0.53,3.21,3.68
15.377,-1.35,-0.09,2.64,2.97
15.387,-1.05,-1.07,2.36,2.80
15.397,-0.78,-2.01,1.85,2.84
15.407,-0.34,-2.95,1.33,3.25
15.417,0.15,-3.90,0.95,4.01
15.427,0.58,-4.88,0.43,4.94
15.437,0.94,-5.39,-0.17,5.48
15.447,1.29,-4.59,-0.89,4.85
15.457,1.76,-2.98,-1.70,3.86
15.467,2.16,-1.99,-3.08,4.26
15.477,2.45,-1.37,-3.52,4.50
15.487,2.61,-0.34,-2.27,3.48
15.497,2.48,0.66,-0.03,2.56
15.507,2.47,0.93,2.57,3.68
15.517,2.50,0.46,4.87,5.50
15.527,2.39,-0.27,6.05,6.51
15.537,1.88,-0.77,5.64,6.00
15.547,0.92,-0.98,3.73,3.96
15.557,-0.28,-0.35,1.60,1.66
15.567,-0.78,-0.67,-0.03,1.03
15.577,-0.48,-1.20,-1.72,2.15
15.587,-0.09,-1.61,-3.08,3.47
15.597,-0.32,-1.84,-3.26,3.75
15.607,-0.75,-1.97,-2.98,3.65
15.617,-0.93,-2.10,-2.99,3.77
15.627,-0.95,-1.90,-2.97,3.65
15.637,-0.62,-1.28,-2.74,3.08
15.647,0.05,-0.28,-2.20,2.22
15.657,0.88,1.20,-1.00,1.80
15.667,1.73,3.21,0.91,3.76
15.677,2.34,5.95,2.80,6.98
15.687,2.67,9.61,3.62,10.61
15.697,3.56,12.78,2.07,13.43
15.708,3.78,13.71,-0.59,14.23
15.718,1.07,12.63,-0.75,12.70
15.727,-2.08,7.86,0.18,8.13
15.737,-2.80,2.90,-0.72,4.10
15.747,-2.28,0.22,-1.09,2.54
15.757,-2.11,-1.30,-0.96,2.65
15.767,-2.09,-1.38,-0.64,2.58
15.777,-1.03,-1.14,-0.22,1.55
15.787,0.40,-1.87,-0.02,1.91
15.797,1.20,-3.03,0.36,3.28
15.807,1.43,-4.26,0.62,4.53
15.817,1.24,-5.02,0.91,5.25
15.827,0.91,-5.05,1.29,5.29
15.837,0.65,-4.65,1.63,4.97
15.847,0.38,-4.27,1.83,4.66
15.857,0.15,-3.94,1.73,4.31
15.867,-0.03,-3.47,1.31,3.71
15.876,-0.36,-3.00,0.65,3.09
15.886,-0.88,-2.49,-0.07,2.64
15.896,-1.62,-1.90,-0.51,2.55
15.906,-2.25,-0.99,-0.67,2.54
15.917,-2.36,0.29,-0.24,2.39
15.926,-2.16,0.88,0.73,2.45
15.936,-1.47,0.49,0.76,1.73
15.946,-0.82,0.27,0.10,0.87
15.956,-0.32,0.15,-0.32,0.48
15.966,0.09,-0.32,-0.25,0.42
15.976,0.42,-1.15,-0.10,1.23
15.986,0.53,-1.95,-0.05,2.02
15.996,0.34,-2.23,-0.01,2.26
16.006,-0.03,-2.00,0.19,2.00
16.016,-0.45,-1.58,0.53,1.73
16.026,-0.81,-1.06,0.97,1.65
16.036,-1.08,-0.68,1.41,1.90
16.046,-1.15,-0.47,1.71,2.11
16.056,-1.00,-0.46,1.70,2.03
16.066,-0.78,-0.52,1.26,1.57
16.076,-0.62,-0.63,0.56,1.05
16.086,-0.59,-0.76,-0.05,0.97
16.096,-0.70,-0.70,-0.17,1.00
16.106,-0.71,-0.65,-0.15,0.98
16.116,-0.61,-0.78,-0.36,1.06
16.126,-0.66,-0.59,-0.46,1.00
16.136,-0.72,-0.57,-0.78,1.21
16.146,-0.95,-0.63,-1.30,1.73
16.156,-1.12,-0.73,-1.79,2.24
16.166,-1.07,-0.79,-2.20,2.57
16.176,-0.84,-0.92,-2.47,2.76
16.186,-0.34,-1.15,-2.60,2.86
16.196,0.67,-1.10,-2.50,2.81
16.206,1.60,-0.79,-2.11,2.77
16.216,2.25,-0.73,-1.77,2.96
16.226,2.61,-0.79,-1.60,3.16
16.236,2.66,-0.76,-1.67,3.23
16.246,2.73,-0.66,-1.76,3.32
16.256,2.69,-0.38,-1.71,3.21
16.266,2.57,0.10,-1.38,2.91
16.276,2.37,0.85,-1.03,2.72
16.286,2.04,1.88,-0.72,2.86
16.296,1.60,2.93,-0.34,3.36
16.306,1.12,4.50,-0.33,4.65
16.316,0.71,6.05,-0.25,6.10
16.326,0.57,7.34,0.12,7.37
16.336,0.48,9.05,0.91,9.11
16.346,0.39,10.11,1.99,10.31
16.356,0.15,9.42,2.63,9.78
16.366,-0.50,8.00,2.75,8.48
16.376,-1.01,6.14,2.63,6.75
16.386,-1.22,4.42,2.04,5.02
16.396,-1.41,3.19,1.05,3.64
16.406,-1.68,2.01,0.36,2.64
16.416,-1.87,0.61,-0.07,1.96
16.426,-1.71,-0.68,-0.57,1.93
16.436,-0.96,-1.81,-1.04,2.30
16.446,0.43,-3.61,-1.57,3.96
16.456,1.84,-5.33,-1.50,5.83
16.466,2.43,-6.55,-1.72,7.19
16.476,2.19,-7.61,-2.38,8.27
16.486,1.75,-7.41,-2.23,7.94
16.496,1.48,-6.66,-1.72,7.03
16.506,1.52,-6.30,-1.34,6.61
16.516,1.34,-5.64,-1.06,5.90
16.526,1.01,-3.23,-0.56,3.43
16.536,1.09,0.36,0.13,1.16
16.546,1.58,4.24,0.73,4.58
16.556,1.98,7.62,1.12,7.95
16.566,1.57,8.63,2.19,9.04
16.576,0.96,8.01,3.64,8.85
16.586,0.72,6.94,4.89,8.52
16.595,0.22,4.04,5.14,6.54
16.606,-0.71,0.61,4.48,4.58
16.615,-1.45,-1.62,3.40,4.03
16.625,-2.15,-2.84,2.25,4.21
16.635,-2.88,-3.23,1.58,4.60
16.645,-3.19,-3.11,1.32,4.65
16.655,-2.98,-2.73,1.15,4.20
16.666,-2.40,-2.96,0.88,3.91
16.675,-1.79,-3.00,0.14,3.50
16.686,-1.03,-2.70,-1.08,3.08
16.695,-0.26,-2.48,-2.08,3.25
16.705,0.35,-2.44,-2.14,3.26
16.715,0.76,-2.11,-0.98,2.45
16.725,1.19,-1.39,0.94,2.06
16.735,1.49,-0.37,2.67,3.08
16.745,1.72,0.31,3.54,3.95
16.755,1.91,-0.02,3.49,3.98
16.765,1.68,-0.68,2.80,3.33
16.775,0.82,-0.31,1.49,1.73
16.785,0.14,-0.52,-0.12,0.55
16.795,-0.32,-0.97,-1.45,1.78
16.805,-0.77,-1.27,-2.11,2.58
16.815,-1.19,-1.40,-2.30,2.94
16.825,-1.55,-1.22,-2.18,2.94
16.835,-1.72,-0.84,-2.08,2.83
16.845,-1.51,-0.55,-2.19,2.72
16.855,-1.14,-0.22,-1.91,2.23
16.865,-0.76,0.49,-0.77,1.18
16.875,-0.42,1.61,0.84,1.86
16.885,-0.32,3.43,2.48,4.24
16.895,-0.09,6.07,2.74,6.66
16.905,1.07,9.27,1.49,9.45
16.915,2.60,11.10,-0.62,11.42
16.926,2.79,11.08,-0.94,11.46
16.935,0.74,8.59,-0.03,8.62
16.945,-1.13,2.92,-0.75,3.22
16.955,-2.52,0.31,-1.69,3.05
16.965,-3.84,-0.85,-1.90,4.37
16.975,-4.23,-1.13,-1.52,4.63
16.985,-2.97,-0.42,-1.04,3.18
16.995,-1.44,-0.17,-0.30,1.48
17.005,-0.81,-0.77,0.49,1.22
17.015,-0.71,-1.45,1.19,2.01
17.025,-0.24,-1.56,1.75,2.36
17.035,0.72,-1.55,1.78,2.47
17.045,1.61,-1.74,1.57,2.84
17.055,2.10,-2.42,1.27,3.45
17.065,2.03,-3.63,0.98,4.27
17.075,1.63,-4.65,0.58,4.96
17.085,1.12,-5.27,0.15,5.39
17.095,0.75,-5.47,-0.22,5.53
17.105,0.57,-5.17,-0.61,5.23
17.115,0.49,-4.67,-0.93,4.78
17.125,0.51,-4.46,-0.98,4.60
17.135,0.59,-4.27,-0.88,4.40
17.145,0.71,-3.92,-0.73,4.05
17.155,0.84,-3.16,-0.65,3.33
17.165,0.92,-2.16,-0.76,2.46
17.175,1.02,-1.23,-0.80,1.78
17.185,1.02,-0.46,-0.83,1.40
17.195,0.71,0.17,-0.72,1.02
17.205,0.11,0.76,-0.23,0.80
17.215,-0.65,0.77,0.31,1.05
17.225,-1.50,0.09,0.50,1.59
17.235,-2.26,-0.36,0.36,2.32
17.245,-2.56,-0.34,0.26,2.60
17.254,-2.39,-0.29,0.12,2.41
17.265,-2.10,-0.51,0.25,2.18
17.275,-1.80,-0.70,0.53,2.00
17.285,-1.47,-0.73,0.70,1.78
17.294,-1.29,-0.72,0.59,1.59
17.304,-1.07,-0.45,0.20,1.17
17.314,-0.72,-0.01,-0.30,0.78
17.325,-0.35,0.77,-0.85,1.20
17.334,-0.06,1.59,-1.12,1.94
17.344,-0.05,2.40,-0.99,2.60
17.354,-0.15,2.63,-0.71,2.72
17.364,-0.35,2.12,-0.57,2.23
17.374,-0.65,1.19,-0.59,1.48
17.384,-0.88,0.47,-0.91,1.35
17.394,-0.66,0.11,-0.97,1.17
17.404,-0.29,-0.05,-0.84,0.89
17.414,0.02,-0.07,-0.75,0.75
17.424,0.28,0.07,-0.52,0.60
17.434,0.41,0.17,-0.35,0.57
17.444,0.41,-0.06,-0.20,0.46
17.454,0.61,-0.40,-0.21,0.76
17.464,0.87,-0.59,-0.51,1.16
17.474,0.78,-0.98,-0.91,1.55
17.484,0.42,-1.49,-1.20,1.95
17.494,0.13,-1.62,-1.53,2.23
17.504,0.12,-1.49,-1.82,2.36
17.514,0.19,-1.42,-1.94,2.41
17.524,0.11,-1.28,-1.81,2.22
17.534,-0.13,-1.10,-1.80,2.11
17.544,-0.31,-0.43,-2.08,2.15
17.554,-0.15,-0.31,-1.80,1.83
17.564,0.17,0.03,-1.71,1.72
17.574,0.41,0.39,-1.41,1.52
17.584,0.49,0.54,-1.14,1.36
17.594,0.44,0.73,-0.97,1.29
17.604,0.36,0.94,-0.78,1.27
17.614,0.37,1.19,-0.70,1.43
17.624,0.29,1.93,-0.65,2.06
17.634,0.42,2.75,-0.50,2.82
17.644,0.58,3.06,-0.12,3.12
17.654,0.51,2.48,0.41,2.56
17.664,0.13,1.65,0.66,1.79
17.674,-0.51,1.14,0.38,1.31
17.684,-1.29,1.06,-0.09,1.67
17.694,-2.11,1.51,-0.45,2.63
17.704,-2.92,2.69,-0.82,4.06
17.714,-3.49,4.66,-1.30,5.97
17.724,-3.51,7.30,-1.69,8.28
17.734,-3.06,9.90,-1.49,10.47
17.744,-2.12,11.48,-0.76,11.70
17.755,-0.62,10.98,0.41,11.00
17.764,0.69,8.01,1.69,8.22
17.774,1.20,4.71,2.55,5.49
17.784,1.16,2.58,3.05,4.16
17.794,1.33,0.92,3.03,3.43
17.804,1.71,-0.74,2.65,3.23
17.814,2.16,-2.03,2.14,3.66
17.824,2.67,-3.09,1.08,4.22
17.834,3.56,-4.34,-0.60,5.65
17.844,5.26,-6.69,-3.03,9.03
17.853,7.17,-8.60,-4.36,12.01
17.864,8.03,-8.08,-3.34,11.87
17.873,7.59,-7.14,-3.41,10.96
17.884,6.64,-6.14,-2.58,9.41
17.893,5.10,-4.13,-1.52,6.74
17.904,3.15,-2.16,-0.79,3.90
17.914,1.12,-0.64,-0.31,1.32
17.924,-0.85,1.23,-0.34,1.53
17.933,-2.95,3.41,-0.58,4.54
17.944,-5.17,5.25,-0.56,7.39
17.953,-7.24,5.79,-0.10,9.27
17.964,-8.27,4.70,2.42,9.81
17.973,-7.06,1.63,6.05,9.44
17.984,-5.30,-0.21,7.53,9.22
17.993,-3.58,-1.23,6.85,7.83
18.004,-2.49,-2.23,5.67,6.58
18.013,-1.82,-3.48,5.01,6.37
18.023,-0.91,-4.01,4.23,5.90
18.033,0.31,-4.48,3.06,5.43
18.043,1.61,-5.34,2.02,5.94
18.053,2.33,-5.49,1.12,6.07
18.063,2.20,-3.94,0.02,4.51
18.073,2.08,-2.35,-0.82,3.24
18.083,2.30,-0.96,-1.38,2.85
18.093,2.71,0.29,-1.66,3.19
18.103,3.14,1.27,-1.13,3.57
18.113,3.30,1.40,-0.36,3.60
18.123,2.57,1.16,0.73,2.91
18.133,1.48,1.01,1.90,2.61
18.143,0.36,0.90,2.77,2.93
18.153,-0.66,0.78,3.15,3.31
18.163,-1.26,0.64,2.65,3.00
18.173,-1.57,0.30,2.15,2.68
18.183,-1.50,-0.13,1.54,2.16
18.193,-0.84,-0.65,0.65,1.24
18.203,0.09,-1.35,-0.55,1.46
18.213,0.26,-1.80,-1.59,2.42
18.223,-0.71,-0.93,-2.41,2.68
18.233,-1.40,-0.25,-3.07,3.38
18.243,-1.23,-0.48,-3.19,3.45
18.253,-0.68,-0.37,-2.98,3.07
18.263,0.57,0.01,-2.56,2.62
18.273,2.03,0.17,-1.77,2.70
18.283,2.58,0.06,-0.91,2.74
18.293,2.82,0.47,0.08,2.86
18.303,3.71,2.12,1.45,4.51
18.313,4.73,4.62,2.05,6.92
18.323,4.81,6.64,1.59,8.35
18.333,3.62,7.63,0.26,8.45
18.343,0.99,8.41,-0.78,8.51
18.353,-1.98,9.10,-0.46,9.32
18.363,-4.83,9.09,0.00,10.29
18.373,-5.38,6.84,-0.84,8.74
18.383,-2.94,1.77,-1.01,3.58
18.393,-1.06,0.18,-0.77,1.32
18.403,-0.54,-0.56,-0.74,1.07
18.413,-0.61,-1.35,-0.33,1.52
18.423,-0.64,-1.65,0.29,1.79
18.433,-0.61,-2.12,0.96,2.41
18.443,-0.87,-2.29,1.74,3.00
18.453,-0.79,-2.08,2.19,3.12
18.463,-0.13,-2.30,2.09,3.11
18.473,0.55,-2.68,1.78,3.27
18.483,0.81,-3.08,1.60,3.56
18.493,0.59,-3.65,1.51,3.99
18.503,0.12,-4.24,1.28,4.43
18.513,-0.38,-4.38,0.84,4.48
18.523,-0.80,-3.88,0.38,3.98
18.533,-0.95,-2.87,-0.00,3.02
18.543,-0.86,-1.99,-0.45,2.21
18.553,-0.65,-1.48,-0.93,1.87
18.563,-0.39,-1.10,-1.30,1.75
18.573,-0.36,-0.91,-1.31,1.63
18.583,-0.88,-0.62,-0.87,1.39
18.592,-1.61,-0.02,-0.15,1.62
18.603,-2.05,0.63,0.80,2.29
18.612,-1.85,1.08,1.13,2.42
18.623,-1.42,0.83,0.90,1.88
18.633,-0.99,-0.06,0.52,1.12
18.643,-0.50,-1.11,0.27,1.24
18.652,-0.06,-1.74,0.00,1.74
18.663,0.15,-1.89,-0.14,1.90
18.673,0.07,-1.79,-0.33,1.82
18.683,-0.31,-1.76,-0.35,1.81
18.692,-0.74,-1.86,-0.17,2.01
18.702,-0.80,-2.00,-0.06,2.15
18.712,-0.37,-1.93,-0.01,1.96
18.722,0.13,-1.74,-0.10,1.74
18.733,0.53,-1.50,-0.14,1.60
18.742,0.89,-1.17,-0.04,1.47
18.752,1.10,-0.65,0.19,1.30
18.762,1.12,-0.04,0.40,1.19
18.772,0.72,0.31,0.33,0.85
18.782,0.04,0.29,-0.14,0.33
18.792,-0.50,0.25,-0.60,0.82
18.802,-0.79,0.14,-1.04,1.31
18.812,-0.88,-0.02,-1.49,1.73
18.822,-0.86,-0.24,-1.73,1.94
18.832,-0.94,-0.12,-1.93,2.15
18.842,-0.91,-0.30,-2.10,2.31
18.852,-0.75,-0.55,-2.10,2.30
18.862,-0.21,-0.39,-1.84,1.89
18.872,0.43,-0.06,-1.44,1.50
18.882,1.04,0.16,-0.92,1.40
18.892,1.42,0.04,-0.32,1.45
18.902,1.40,-0.12,-0.22,1.42
18.912,1.08,-0.19,-0.40,1.17
18.922,0.77,-0.02,-0.66,1.01
18.932,0.47,0.18,-0.80,0.95
18.942,0.06,0.27,-1.02,1.06
18.952,-0.21,0.26,-1.30,1.34
18.962,-0.35,0.40,-1.66,1.74
18.972,-0.48,0.85,-2.20,2.41
18.982,-0.43,1.27,-2.43,2.78
18.992,-0.38,1.91,-2.55,3.21
19.002,-0.18,2.62,-2.33,3.51
19.012,0.23,3.22,-1.68,3.64
19.022,0.77,3.75,-0.75,3.90
19.032,1.17,4.25,0.29,4.42
19.042,1.26,4.60,1.36,4.96
19.052,0.96,4.83,2.16,5.37
19.062,0.35,5.33,2.51,5.91
19.072,-0.43,6.19,2.23,6.59
19.082,-1.35,6.76,1.74,7.11
19.092,-2.24,6.59,1.43,7.11
19.102,-2.73,5.77,1.30,6.51
19.112,-2.73,4.47,1.31,5.40
19.122,-2.40,2.86,1.40,3.98
19.132,-1.94,1.42,1.44,2.81
19.142,-1.22,0.14,1.42,1.88
19.152,-0.21,-0.97,1.18,1.54
19.162,0.86,-1.84,0.31,2.05
19.172,1.72,-2.89,-0.75,3.45
19.182,2.44,-4.48,-1.86,5.43
19.192,3.19,-6.69,-3.18,8.07
19.202,3.48,-7.80,-2.40,8.87
19.212,3.22,-7.28,-1.74,8.15
19.222,3.07,-5.64,-1.05,6.51
19.232,3.27,-3.82,-0.19,5.03
19.242,3.65,-2.38,-0.24,4.36
19.252,3.30,-1.07,-0.40,3.49
19.262,2.17,0.84,-0.38,2.35
19.272,0.94,3.33,0.02,3.46
19.282,-0.14,4.39,0.81,4.47
19.292,-1.15,4.16,2.32,4.90
19.302,-1.95,3.70,3.98,5.77
19.312,-2.50,3.02,5.00,6.35
19.322,-2.68,2.11,5.22,6.24
19.332,-2.60,0.91,4.92,5.64
19.342,-2.47,-0.46,4.25,4.94
19.352,-2.20,-1.79,3.45,4.46
19.361,-1.57,-3.11,2.58,4.34
19.372,-0.83,-4.19,1.78,4.63
19.382,-0.12,-4.74,1.22,4.89
19.391,0.12,-4.29,0.89,4.38
19.401,0.01,-3.29,0.41,3.31
19.411,0.17,-2.82,-0.47,2.86
19.421,0.54,-2.39,-1.31,2.78
19.431,0.96,-1.94,-1.79,2.81
19.441,1.28,-1.47,-1.86,2.69
19.451,1.39,-0.82,-1.46,2.18
19.461,1.39,-0.10,-0.70,1.56
19.471,1.31,0.44,0.18,1.39
19.481,1.06,0.59,1.21,1.71
19.491,0.71,0.42,2.26,2.40
19.501,0.42,-0.02,2.81,2.84
19.511,0.12,-0.52,2.79,2.84
19.521,-0.21,-0.70,2.24,2.35
19.531,-0.67,-0.49,1.31,1.56
19.541,-0.92,-0.63,0.28,1.15
19.551,-0.98,-0.67,-0.51,1.30
19.561,-0.46,-1.63,-1.10,2.01
19.571,0.33,-2.30,-1.55,2.79
19.581,0.85,-2.26,-1.84,3.04
19.591,0.93,-1.95,-2.00,2.95
19.601,0.65,-1.22,-1.86,2.32
19.611,0.45,-0.45,-1.51,1.64
19.621,0.47,0.20,-1.09,1.21
19.631,0.81,0.69,-0.73,1.29
19.641,1.32,1.18,-0.31,1.80
19.651,1.86,1.63,0.08,2.48
19.661,2.26,2.02,0.22,3.04
19.671,2.32,2.38,0.19,3.33
19.681,1.94,3.10,0.10,3.66
19.691,1.12,4.41,-0.40,4.57
19.701,0.42,5.55,-1.44,5.75
19.711,0.49,5.49,-2.05,5.88
19.721,0.42,5.02,-1.38,5.22
19.731,-0.16,4.91,-0.12,4.91
19.741,-0.56,5.10,0.53,5.16
19.751,-0.54,5.39,0.28,5.42
19.761,-0.47,5.37,-0.18,5.39
19.771,-0.73,4.17,-0.22,4.24
19.781,-1.41,3.17,-0.18,3.47
19.791,-2.23,2.56,-0.14,3.39
19.801,-2.90,1.83,0.08,3.43
19.811,-3.24,1.23,0.30,3.47
19.821,-3.18,0.50,0.23,3.23
19.831,-2.85,-0.08,0.29,2.87
19.841,-2.28,-0.48,0.46,2.38
19.851,-1.48,-1.21,0.51,1.98
19.861,-0.69,-1.89,0.45,2.06
19.871,0.10,-2.45,0.22,2.46
19.881,0.77,-3.07,0.04,3.16
19.891,1.15,-4.02,-0.08,4.18
19.901,1.21,-4.92,-0.21,5.07
19.911,1.09,-5.36,-0.31,5.48
19.921,0.86,-5.34,-0.36,5.42
19.931,0.76,-5.14,-0.47,5.22
19.941,0.75,-4.45,-0.46,4.54
19.951,0.73,-3.45,-0.30,3.54
19.961,0.68,-2.51,-0.08,2.60
19.971,0.56,-1.73,-0.01,1.82
19.981,0.30,-0.81,-0.03,0.86
19.991,-0.12,0.06,0.07,0.16
20.001,-0.57,0.80,0.30,1.03
20.011,-0.62,1.24,0.44,1.45
20.021,-0.53,0.88,0.61,1.20
20.030,-0.38,-0.05,0.77,0.86
20.041,-0.31,-0.74,0.43,0.91
20.050,-0.33,-1.35,0.39,1.44
20.061,-0.05,-1.75,0.36,1.79
20.070,0.32,-2.18,-0.18,2.22
20.080,0.38,-2.43,-0.80,2.59
20.090,0.19,-2.35,-0.96,2.55
20.101,-0.02,-2.05,-0.73,2.18
20.110,-0.11,-1.80,-0.30,1.83
20.120,0.01,-1.65,-0.01,1.65
20.130,-0.05,-1.53,0.18,1.54
20.140,-0.13,-1.04,0.72,1.27
20.150,-0.14,-0.54,0.90,1.06
20.160,-0.17,-0.09,0.67,0.70
20.170,-0.13,0.32,0.23,0.42
20.180,-0.16,0.64,-0.02,0.66
20.190,0.07,0.96,-0.41,1.04
20.200,0.27,0.94,-0.88,1.31
20.210,0.36,0.79,-1.02,1.34
20.220,0.43,0.91,-0.96,1.39
20.230,0.47,0.42,-1.07,1.24
20.240,0.65,-0.16,-1.30,1.46
20.250,0.81,-0.30,-1.44,1.68
20.260,0.84,-0.20,-1.41,1.66
20.270,0.68,-0.10,-1.32,1.49
20.280,0.77,0.08,-1.10,1.34
20.290,0.57,0.43,-0.72,1.01
20.300,0.60,0.57,-0.83,1.17
20.310,0.57,0.43,-0.49,0.86
20.320,0.40,0.24,-0.18,0.50
20.330,0.20,0.09,-0.08,0.23
20.340,-0.09,0.03,0.00,0.09
20.350,-0.52,0.04,-0.05,0.53
20.360,-0.84,0.09,-0.18,0.86
20.370,-0.89,0.22,-0.39,1.00
20.380,-0.89,0.43,-0.59,1.15
20.390,-0.86,0.52,-0.67,1.21
20.400,-0.86,1.10,-0.74,1.58
20.410,-0.98,0.63,-0.90,1.47
20.420,-0.97,-0.10,-1.11,1.48
20.430,-0.74,-0.15,-1.13,1.36
20.440,-0.26,-0.17,-0.93,0.98
20.450,0.20,-0.17,-0.81,0.85
20.460,0.34,-0.03,-1.13,1.18
20.470,0.26,0.03,-1.39,1.42
20.480,0.27,-0.06,-1.40,1.43
20.490,0.15,0.31,-1.19,1.24
20.500,0.00,0.72,-0.82,1.09
20.510,0.02,1.04,-0.61,1.20
20.520,0.21,1.61,-0.54,1.71
20.530,0.37,2.35,-0.21,2.39
20.540,0.43,3.04,0.31,3.09
20.550,0.28,3.56,0.71,3.64
20.560,-0.28,4.06,0.83,4.15
20.570,-1.14,4.79,0.46,4.94
20.580,-1.97,5.76,-0.28,6.09
20.589,-2.50,6.80,-0.83,7.30
20.600,-2.69,7.76,-1.19,8.30
20.610,-2.73,8.37,-1.17,8.88
20.620,-2.86,7.94,-0.81,8.48
20.630,-2.78,5.80,-0.38,6.44
20.640,-2.46,3.14,0.20,3.99
20.650,-2.15,1.06,0.89,2.55
20.660,-1.59,-0.62,1.06,2.01
20.670,-0.72,-1.86,0.21,2.01
20.680,0.34,-2.91,-0.89,3.07
20.690,1.69,-4.15,-1.82,4.84
20.700,3.65,-5.55,-2.61,7.14
20.710,5.68,-7.32,-3.14,9.78
20.720,6.59,-8.02,-2.55,10.69
20.729,6.96,-7.77,-2.19,10.66
20.740,7.06,-6.24,-1.02,9.48
20.749,7.04,-4.01,-0.21,8.11
20.760,6.94,-2.31,-0.01,7.32
20.769,5.90,-0.49,0.44,5.94
20.779,3.93,1.18,1.00,4.22
20.789,1.90,1.80,1.37,2.95
20.799,0.19,2.90,1.66,3.35
20.809,-1.46,4.62,1.93,5.22
20.819,-3.17,5.40,2.48,6.73
20.829,-3.96,6.17,3.06,7.95
20.839,-3.49,6.14,3.62,7.94
20.849,-3.38,3.78,4.13,6.54
20.859,-3.78,0.87,4.31,5.80
20.869,-3.96,-1.23,4.03,5.79
20.879,-3.73,-2.63,3.53,5.77
20.889,-2.98,-3.39,3.10,5.47
20.899,-2.11,-4.01,2.76,5.30
20.909,-1.16,-5.08,2.32,5.71
20.919,-0.48,-5.76,1.78,6.05
20.929,-0.42,-5.00,1.17,5.16
20.939,-0.51,-3.94,0.44,4.00
20.949,-0.36,-3.16,-0.35,3.20
20.959,-0.16,-2.12,-1.05,2.37
20.969,-0.10,-0.54,-1.20,1.32
20.979,0.23,0.92,-0.76,1.22
20.989,0.79,1.76,0.27,1.94
20.999,1.26,2.73,1.35,3.30
21.009,1.02,1.83,2.46,3.23
21.019,1.04,0.23,2.72,2.93
21.029,1.44,-1.32,2.22,2.96
21.039,1.65,-2.05,1.73,3.15
21.049,1.52,-1.00,0.92,2.04
21.059,1.20,-0.70,0.02,1.39
21.069,0.97,-1.71,-0.74,2.10
21.079,0.03,-1.83,-0.87,2.02
21.089,-0.71,-1.51,-1.25,2.08
21.099,-0.53,-1.25,-1.81,2.26
21.109,0.11,-1.07,-2.28,2.52
21.119,0.43,-0.62,-2.23,2.36
21.129,0.60,0.17,-1.63,1.74
21.139,0.81,0.89,-1.02,1.58
21.149,1.03,1.34,-0.51,1.77
21.159,1.39,1.53,-0.39,2.10
21.169,1.72,1.78,-0.18,2.49
21.179,1.84,2.43,0.63,3.11
21.189,1.70,3.56,1.54,4.24
21.199,1.26,5.19,1.43,5.53
21.209,0.63,7.63,0.33,7.66
21.219,-0.21,9.58,-0.82,9.62
21.229,-1.69,10.57,-1.31,10.78
21.239,-3.55,10.24,-1.15,10.90
21.249,-4.92,7.53,-0.37,9.00
21.259,-4.47,2.10,0.53,4.97
21.269,-3.40,-0.73,0.44,3.50
21.279,-2.48,-0.40,0.06,2.51
21.289,-1.55,0.87,-0.51,1.85
21.299,-0.37,1.02,-0.55,1.22
21.309,0.47,0.28,-0.38,0.66
21.319,0.86,0.08,-0.12,0.87
21.328,1.03,-1.34,-0.13,1.70
21.339,0.92,-3.33,0.07,3.46
21.348,1.13,-4.32,0.27,4.47
21.359,1.47,-4.41,0.24,4.66
21.369,1.57,-4.30,0.33,4.59
21.379,1.45,-4.36,0.34,4.60
21.389,1.24,-4.55,0.08,4.71
21.399,0.97,-4.82,-0.30,4.93
21.409,0.79,-5.17,-0.71,5.28
21.419,0.74,-5.24,-1.07,5.40
21.429,0.71,-4.92,-1.29,5.14
21.439,0.62,-4.62,-1.32,4.85
21.449,0.49,-4.27,-1.10,4.44
21.458,0.28,-3.87,-0.63,3.93
21.469,0.10,-3.15,-0.21,3.16
21.478,-0.13,-2.28,-0.04,2.29
21.488,-0.38,-1.41,0.10,1.46
21.499,-0.66,-0.61,0.08,0.90
21.508,-0.76,0.25,-0.08,0.80
21.518,-0.53,0.94,-0.10,1.08
21.528,-0.12,1.37,0.10,1.38
21.538,-0.02,0.95,0.02,0.95
21.548,-0.44,0.22,-0.16,0.52
21.558,-1.19,-0.24,0.05,1.22
21.568,-1.77,-0.54,0.52,1.93
21.578,-1.87,-0.90,0.80,2.22
21.588,-1.53,-0.70,0.79,1.86
21.598,-1.06,-0.44,0.47,1.24
21.608,-0.61,-0.29,0.15,0.69
21.618,-0.39,-0.08,0.07,0.40
21.628,-0.52,0.29,0.36,0.69
21.638,-0.96,0.64,0.67,1.34
21.648,-1.18,1.01,0.76,1.73
21.658,-1.37,1.75,0.45,2.27
21.668,-1.80,2.22,0.11,2.86
21.678,-1.93,1.89,-0.12,2.70
21.688,-1.67,0.11,0.11,1.68
21.698,-0.89,-1.27,-0.13,1.56
21.708,-0.22,-1.00,-0.78,1.28
21.718,-0.06,-1.35,-1.21,1.82
21.728,-0.23,-1.10,-1.47,1.85
21.738,-0.20,-0.29,-1.81,1.84
21.748,0.03,0.08,-1.95,1.96
21.758,0.28,-0.03,-1.47,1.49
21.768,0.46,-0.13,-0.79,0.92
21.778,0.54,-0.10,-0.24,0.60
21.788,0.57,0.18,-0.08,0.60
21.798,0.42,0.43,0.20,0.63
21.808,0.28,0.35,-0.33,0.56
21.818,0.17,0.27,-0.75,0.82
21.828,0.16,0.80,0.01,0.82
21.838,0.06,2.24,-1.67,2.79
21.848,-0.01,0.64,-1.81,1.92
21.858,0.30,-0.02,-0.97,1.01
21.868,0.40,0.52,-0.83,1.06
21.878,0.62,0.61,-1.37,1.62
21.888,0.87,0.95,-1.94,2.33
21.898,1.08,1.49,-1.82,2.58
21.908,1.25,1.94,-1.62,2.82
21.918,1.30,2.29,-1.42,2.99
21.928,1.47,2.70,-1.00,3.23
21.938,1.37,3.46,-0.21,3.73
21.948,0.67,4.83,0.74,4.93
21.958,-0.44,6.78,1.36,6.93
21.968,-1.40,8.73,2.07,9.08
21.978,-1.29,10.12,3.37,10.74
21.988,-0.91,10.95,3.22,11.46
21.998,-0.74,7.77,2.40,8.17
22.008,-0.99,2.88,2.12,3.71
22.018,-1.63,-0.43,1.96,2.58
22.028,-2.25,-2.10,0.87,3.20
22.038,-2.44,-3.20,-1.03,4.15
22.048,-2.14,-3.64,-2.71,5.02
22.058,-1.18,-4.02,-3.45,5.43
22.068,0.32,-5.08,-3.99,6.47
22.078,1.96,-5.49,-2.35,6.29
22.088,2.94,-4.91,-1.06,5.82
22.098,3.23,-3.32,-0.29,4.64
22.108,3.67,-2.14,-0.33,4.26
22.117,4.42,-1.67,-0.78,4.79
22.127,4.82,-0.94,-0.78,4.97
22.137,4.42,0.10,-0.72,4.48
22.147,3.80,1.22,-0.93,4.09
22.157,3.00,1.56,-0.24,3.39
22.167,2.14,1.54,0.51,2.69
22.177,1.13,0.72,1.35,1.90
22.187,-0.20,-0.24,2.46,2.48
22.197,-1.24,-0.08,3.16,3.40
22.207,-1.45,0.55,3.62,3.94
22.217,-1.43,0.44,3.57,3.87
22.227,-1.54,-0.44,3.43,3.79
22.237,-1.56,-1.24,2.98,3.58
22.247,-1.39,-2.02,2.25,3.33
22.257,-1.10,-2.90,1.38,3.40
22.267,-1.14,-3.11,0.72,3.39
22.277,-1.36,-2.89,0.29,3.21
22.287,-1.56,-2.68,-0.07,3.11
22.297,-1.40,-2.15,-0.89,2.72
22.307,-0.84,-2.02,-1.71,2.78
22.317,0.26,-2.15,-2.45,3.27
22.327,1.40,-2.12,-1.93,3.19
22.337,2.48,-1.25,-0.33,2.79
22.347,0.98,0.60,1.50,1.89
22.357,0.60,1.35,2.53,2.93
22.367,2.18,0.51,1.72,2.82
22.377,3.64,-0.81,2.73,4.62
22.387,3.10,-0.37,2.64,4.09
22.397,1.94,-0.40,2.30,3.03
22.407,1.39,-1.11,1.06,2.07
22.417,0.91,-1.70,-0.22,1.94
22.427,0.12,-2.05,-1.28,2.42
22.437,-0.53,-2.43,-1.89,3.12
22.447,-1.23,-1.97,-1.93,3.01
22.457,-1.79,-0.53,-2.53,3.14
22.467,-1.88,0.48,-2.36,3.05
22.477,-1.75,1.35,-1.65,2.76
22.487,-1.24,1.73,-1.13,2.41
22.497,-0.87,1.60,-1.09,2.12
22.507,-0.41,1.17,-0.90,1.53
22.517,0.33,0.76,-0.28,0.87
22.527,0.98,0.96,0.30,1.41
22.537,1.20,1.30,0.90,1.99
22.547,1.13,1.68,0.89,2.21
22.557,1.38,2.91,0.26,3.23
22.567,1.91,5.12,-0.73,5.51
22.577,2.22,7.05,-1.34,7.51
22.587,2.23,7.19,-1.30,7.63
22.597,0.36,6.82,-0.45,6.84
22.607,-2.13,4.35,0.95,4.94
22.617,-3.18,2.00,0.44,3.78
22.627,-3.15,1.84,-0.41,3.66
22.637,-2.66,2.78,-1.03,3.98
22.646,-1.77,2.38,-0.98,3.12
22.657,-1.28,1.58,-1.05,2.29
22.667,-1.62,1.32,-0.95,2.30
22.677,-1.70,0.81,-0.86,2.07
22.687,-1.34,-0.10,0.10,1.35
22.697,-0.67,-1.06,1.04,1.63
22.707,-0.38,-2.14,1.66,2.74
22.717,-0.36,-2.93,2.10,3.62
22.727,0.03,-3.02,2.55,3.95
22.737,0.01,-2.47,2.25,3.34
22.746,-0.14,-2.04,1.80,2.72
22.757,0.17,-2.17,1.28,2.53
22.767,0.31,-2.17,0.81,2.34
22.777,0.27,-1.97,0.22,2.00
22.787,0.33,-2.08,-0.43,2.15
22.797,0.52,-2.50,-0.98,2.74
22.806,0.94,-2.96,-1.16,3.31
22.816,1.36,-2.84,-1.11,3.34
22.826,2.02,-2.77,-0.79,3.52
22.837,2.06,-2.49,-0.54,3.28
22.846,1.56,-2.18,-0.54,2.73
22.856,0.97,-2.23,-0.56,2.50
22.866,0.26,-2.23,-0.41,2.28
22.876,-0.28,-2.12,0.03,2.14
22.886,-0.51,-2.03,0.29,2.12
22.896,-0.99,-1.74,0.16,2.01
22.906,-1.45,-1.74,0.03,2.26
22.916,-1.17,-1.77,0.64,2.21
22.926,-0.80,-1.38,0.51,1.67
22.936,-0.45,-1.05,-0.05,1.14
22.946,-0.20,-0.85,-0.17,0.89
22.956,-0.13,-0.67,-0.42,0.80
22.966,-0.05,-0.53,-0.30,0.61
22.976,0.03,-0.44,-0.07,0.45
22.986,0.10,-0.36,-0.17,0.41
22.996,0.06,-0.15,-0.23,0.28
23.006,0.20,0.20,-0.14,0.32
23.016,0.47,0.60,0.02,0.76
23.026,0.62,0.87,0.18,1.08
23.036,0.57,1.01,0.17,1.17
23.046,0.61,1.22,0.11,1.37
23.056,0.61,1.24,-0.13,1.39
23.066,0.40,0.99,-0.44,1.16
23.076,0.20,0.67,-0.55,0.89
23.086,-0.09,0.31,-0.40,0.51
23.096,-0.14,0.17,-0.40,0.46
23.106,-0.13,0.43,-0.53,0.70
23.116,0.08,0.34,-0.98,1.04
23.126,0.42,0.36,-1.12,1.25
23.136,0.59,0.67,-1.20,1.49
23.146,0.43,1.15,-1.48,1.92
23.156,-0.11,1.10,-1.62,1.96
23.166,-0.69,0.24,-1.44,1.62
23.176,-1.10,-0.44,-1.15,1.65
23.186,-1.21,-0.79,-0.88,1.69
23.196,-0.82,-0.96,-0.94,1.58
23.206,-0.31,-1.05,-0.91,1.42
23.216,0.18,-0.64,-0.88,1.11
23.226,0.52,-0.19,-0.86,1.02
23.236,0.66,0.05,-1.10,1.29
23.246,0.65,-0.03,-1.36,1.51
23.256,0.46,-0.01,-1.56,1.62
23.266,0.33,-0.01,-1.62,1.66
23.276,0.22,0.11,-1.89,1.91
23.286,0.06,-0.02,-2.33,2.33
23.296,-0.02,0.33,-2.13,2.16
23.306,-0.06,0.54,-2.12,2.19
23.316,-0.06,0.62,-2.30,2.39
23.326,-0.16,0.92,-2.12,2.31
23.336,-0.41,1.19,-1.86,2.25
23.346,-0.65,1.40,-1.93,2.47
23.356,-0.75,1.80,-2.24,2.97
23.366,-0.66,2.13,-1.87,2.91
23.376,-0.51,2.21,-1.63,2.79
23.386,-0.48,2.68,-1.76,3.24
23.396,-0.14,3.04,-1.86,3.57
23.406,0.56,2.83,-1.39,3.20
23.416,1.08,2.53,-1.08,2.96
23.426,0.94,2.44,-0.97,2.79
23.435,-0.11,2.46,-0.65,2.55
23.446,-1.23,2.25,-0.67,2.65
23.456,-1.61,2.37,-1.17,3.10
23.466,-1.19,3.07,-1.33,3.55
23.476,-0.72,3.94,-1.23,4.19
23.486,-0.62,4.41,-1.01,4.57
23.496,-0.66,4.22,-0.65,4.32
23.506,-0.63,3.31,-0.10,3.37
23.516,-0.46,2.13,0.68,2.29
23.526,-0.42,1.40,1.17,1.87
23.535,0.00,0.95,0.87,1.29
23.545,0.50,0.32,0.98,1.15
23.556,1.06,-0.76,1.54,2.02
23.565,1.59,-1.83,1.52,2.86
23.575,1.57,-2.46,1.68,3.37
23.585,0.94,-3.26,1.44,3.69
23.595,0.24,-3.91,1.69,4.26
23.605,-0.22,-4.09,1.46,4.35
23.615,-0.41,-3.99,0.66,4.07
23.625,-0.43,-4.09,0.27,4.13
23.635,-0.51,-3.86,0.14,3.90
23.645,-0.30,-3.34,0.07,3.36
23.655,0.30,-2.49,0.20,2.52
23.665,0.76,-1.57,0.76,1.90
23.675,1.13,-1.38,1.07,2.08
23.685,1.29,-0.42,1.11,1.75
23.695,1.11,0.25,0.80,1.39
23.705,1.10,0.35,0.83,1.42
23.715,0.72,1.05,0.83,1.52
23.725,-0.01,1.19,0.90,1.49
23.735,-0.27,0.69,0.52,0.91
23.745,-0.67,0.99,0.62,1.35
23.755,-0.89,0.85,0.50,1.33
23.765,-0.88,0.85,0.29,1.26
23.775,-0.73,1.59,0.32,1.78
23.785,0.16,2.94,0.59,3.01
23.795,0.72,4.28,0.10,4.34
23.805,-0.06,1.35,0.73,1.53
23.815,-0.83,-0.83,1.22,1.69
23.825,-1.52,-0.69,0.28,1.69
23.835,-1.73,-0.28,0.59,1.86
23.845,-1.71,-0.36,0.75,1.90
23.855,-1.63,-0.65,0.29,1.78
23.865,-1.42,-0.40,0.34,1.51
23.875,-0.87,0.22,0.64,1.10
23.885,-0.44,0.81,1.12,1.45
23.895,0.15,1.14,1.84,2.17
23.905,1.21,0.77,3.13,3.44
23.915,2.20,1.05,3.61,4.36
23.925,2.78,0.96,2.07,3.60
23.935,2.87,1.00,0.40,3.07
23.945,2.47,1.16,-0.55,2.79
23.955,1.91,0.89,-1.15,2.40
23.965,1.43,0.89,-1.04,1.98
23.975,1.21,1.19,-0.19,1.71
23.985,2.04,1.21,1.23,2.67
23.995,2.40,2.57,1.28,3.74
24.005,2.55,3.45,1.02,4.41
24.015,3.21,2.66,-0.45,4.20
24.025,3.41,2.47,-2.84,5.08
24.035,3.05,3.13,-2.53,5.05
24.045,2.86,3.49,-2.48,5.15
24.055,2.84,3.73,-2.23,5.19
24.065,2.47,3.84,-3.14,5.54
24.075,2.09,3.78,-2.54,5.01
24.085,1.95,3.22,-1.38,4.01
24.095,1.80,2.93,-0.90,3.55
24.105,1.85,2.54,-1.83,3.64
24.115,1.88,2.95,-2.97,4.59
24.125,2.02,3.03,-4.13,5.51
24.135,2.27,2.68,-4.75,5.91
24.145,2.28,2.42,-4.52,5.61
24.155,2.08,2.11,-4.15,5.09
24.165,1.64,1.82,-4.00,4.69
24.175,1.31,1.35,-4.89,5.24
24.185,0.96,0.96,-5.12,5.30
24.195,0.63,1.12,-4.53,4.71
24.205,0.48,1.20,-4.11,4.31
24.215,0.44,1.35,-3.61,3.88
24.225,0.24,1.54,-3.35,3.70
24.234,0.04,1.42,-3.44,3.72
24.245,-0.30,1.41,-3.60,3.88
24.255,-0.60,1.39,-3.50,3.81
24.264,-0.83,1.63,-3.06,3.56
24.275,-1.14,2.07,-2.18,3.21
24.284,-1.52,2.38,-1.38,3.14
24.295,-1.95,2.68,-1.62,3.69
24.304,-2.20,2.77,-2.26,4.20
24.314,-2.47,2.69,-2.37,4.35
24.324,-3.00,2.37,-2.10,4.36
24.334,-3.52,2.11,-1.87,4.51
24.344,-4.10,2.23,-1.63,4.94
24.354,-4.70,2.33,-1.20,5.39
24.364,-5.28,2.29,-0.64,5.79
24.374,-5.80,2.24,-0.57,6.25
24.384,-6.33,2.33,-0.70,6.78
24.394,-6.76,2.32,-1.02,7.22
24.404,-6.92,2.24,-1.18,7.37
24.414,-6.99,1.94,-0.72,7.29
24.424,-7.07,0.95,-0.43,7.15
24.434,-7.04,0.18,-0.18,7.04
24.444,-7.05,-0.27,0.07,7.06
24.454,-6.96,-0.79,0.56,7.02
24.464,-6.81,-0.74,1.07,6.93
24.474,-6.60,-0.28,0.91,6.67
24.484,-6.19,0.15,0.75,6.23
24.494,-5.87,0.33,1.01,5.96
24.504,-5.47,0.17,1.42,5.66
24.514,-5.05,0.06,1.78,5.35
24.524,-4.66,0.17,1.77,4.99
24.534,-4.30,0.43,1.39,4.54
24.544,-3.97,0.38,1.45,4.24
24.554,-3.55,0.34,1.59,3.91
24.564,-3.16,0.30,1.90,3.70
24.574,-2.85,0.12,1.90,3.43
24.584,-2.71,-0.22,1.61,3.16
24.594,-2.53,-0.68,1.37,2.96
24.604,-2.28,-0.92,1.58,2.92
24.614,-1.89,-0.58,1.94,2.77
24.624,-1.31,0.16,1.68,2.14
24.634,-0.23,-0.56,1.11,1.26
24.644,-0.20,-0.70,0.62,0.96
24.654,0.09,-1.31,0.97,1.63
24.664,0.38,-1.56,2.26,2.77
24.674,0.08,-1.72,3.60,3.99
24.684,-0.61,-1.69,4.50,4.85
24.694,-1.13,-1.88,3.92,4.49
24.704,-3.03,-2.89,3.14,5.23
24.714,-3.48,-2.35,0.76,4.27
24.724,-4.05,-2.22,0.12,4.62
24.734,-4.13,-1.49,0.56,4.43
24.744,-3.08,-0.38,1.05,3.28
24.754,-2.48,0.27,1.12,2.73
24.764,-1.90,0.73,0.69,2.14
24.774,-1.30,0.67,0.32,1.50
24.784,-1.22,0.40,0.14,1.29
24.794,-1.10,0.04,0.03,1.10
24.804,-1.16,0.07,-0.07,1.17
24.814,-1.50,-0.41,0.29,1.58
24.824,-2.07,-1.09,0.01,2.34
24.834,-2.31,-0.85,0.02,2.46
24.844,-1.57,-1.82,0.11,2.41
24.853,-1.21,-1.75,0.29,2.15
24.863,-0.96,-1.63,0.42,1.94
24.874,-1.41,-0.96,0.15,1.72
24.883,-1.92,-0.42,-0.08,1.97
24.894,-2.20,-0.38,-0.76,2.36
24.903,-2.48,-0.10,-1.31,2.81
24.913,-2.59,0.42,-1.52,3.03
24.923,-2.16,0.56,-1.57,2.72
24.933,-1.62,0.25,-1.05,1.95
24.943,-1.32,-0.53,-0.18,1.43
24.954,-1.18,-1.30,0.27,1.77
24.963,-0.91,-1.63,0.31,1.89
24.973,-0.43,-1.85,-0.04,1.90
24.983,0.03,-1.73,-0.21,1.74
24.993,0.18,-1.38,-0.12,1.39
25.003,0.21,-1.11,0.19,1.15
25.013,0.16,-0.98,0.57,1.14
25.023,0.11,-0.90,0.82,1.23
25.033,-1.07,-2.18,3.87,4.57
25.043,-0.81,-1.11,3.95,4.18
25.053,0.28,-0.02,1.17,1.20
25.063,-0.09,-1.15,1.06,1.57
25.073,-0.15,-3.06,2.77,4.13
25.083,0.27,-0.03,1.82,1.84
25.093,0.04,0.28,0.93,0.98
25.103,0.04,0.26,0.63,0.68
25.113,0.02,0.57,0.34,0.66
25.123,-0.29,-0.09,0.92,0.96
25.133,-0.35,-0.66,1.58,1.75
25.143,-0.19,-1.03,1.04,1.47
25.153,0.23,-0.82,0.78,1.15
25.163,0.17,-0.84,0.48,0.98
25.173,0.30,-0.73,0.27,0.83
25.183,0.47,-0.69,0.79,1.15
25.193,0.51,-0.70,0.78,1.17
25.203,0.67,-0.61,0.35,0.97
25.213,0.62,-0.46,0.40,0.87
25.223,0.24,-0.44,0.44,0.66
25.233,0.01,-0.28,0.16,0.32
25.243,-0.28,0.01,0.04,0.28
25.253,-0.62,0.11,0.04,0.64
25.263,-0.84,0.14,0.06,0.85
25.273,-0.99,0.19,0.34,1.06
25.283,-1.16,0.10,0.79,1.41
25.293,-1.20,0.07,0.98,1.55
25.303,-1.11,0.04,0.87,1.41
25.313,-0.91,-0.14,0.27,0.96
25.323,-0.64,-0.29,-0.31,0.76
25.334,-0.36,-0.26,-0.64,0.77
25.343,-0.15,-0.36,-0.96,1.04
25.353,-0.68,-0.95,-0.02,1.16
25.363,-1.05,-0.93,1.14,1.81
25.373,-1.22,-0.71,1.68,2.19
25.383,-1.25,-0.58,1.66,2.16
25.393,-1.01,-0.56,0.92,1.48
25.403,-0.52,-0.59,0.06,0.79
25.413,-0.01,-0.71,-0.41,0.82
25.423,0.26,-1.26,-0.48,1.38
25.433,0.42,-1.66,-0.09,1.72
