time,ax,ay,az,atotal
0.000,1.58,1.11,-1.74,2.60
0.010,1.85,1.40,-2.38,3.32
0.020,1.82,0.67,-1.67,2.56
0.030,1.29,0.78,-1.29,1.99
0.040,0.99,0.82,-0.58,1.40
0.050,0.72,0.88,0.39,1.20
0.060,0.47,0.87,1.23,1.58
0.070,0.12,0.91,1.97,2.18
0.080,-0.33,0.25,2.38,2.42
0.090,-1.12,-0.63,2.65,2.95
0.100,-2.26,-1.53,1.88,3.31
0.110,-3.62,-2.94,1.01,4.78
0.120,-3.62,-3.81,-0.12,5.25
0.130,-3.35,-4.41,0.83,5.60
0.140,-3.90,-4.34,2.65,6.41
0.150,-4.42,-4.16,3.19,6.86
0.160,-4.66,-3.97,2.95,6.79
0.170,-5.01,-3.51,2.90,6.78
0.180,-5.44,-3.03,3.15,6.97
0.189,-5.64,-2.59,3.18,6.98
0.200,-5.88,-2.16,3.39,7.13
0.209,-6.04,-1.74,3.57,7.23
0.220,-6.16,-1.14,3.21,7.04
0.230,-6.04,-0.13,2.60,6.58
0.240,-4.60,0.21,2.56,5.27
0.250,-4.15,0.49,1.95,4.61
0.260,-4.29,1.65,0.91,4.68
0.270,-4.14,2.09,0.67,4.68
0.280,-2.75,1.50,0.84,3.24
0.289,4.68,1.91,0.63,5.09
0.300,0.75,2.34,-3.39,4.19
0.310,3.05,-1.59,-0.43,3.46
0.320,4.07,-0.67,1.94,4.56
0.330,3.20,3.33,2.87,5.43
0.339,-0.50,5.39,2.93,6.15
0.349,-2.22,3.82,3.09,5.39
0.359,-3.90,4.01,2.15,5.99
0.369,-6.08,1.84,-6.17,8.85
0.379,-8.50,-3.74,-22.75,24.57
0.389,-7.60,-2.82,-14.52,16.63
0.399,-3.49,0.09,2.42,4.25
0.409,1.57,-0.76,4.37,4.71
0.420,3.92,0.76,2.30,4.61
0.429,3.50,4.52,1.26,5.86
0.439,2.71,4.43,1.58,5.43
0.449,1.64,1.98,5.08,5.70
0.459,1.29,0.74,5.60,5.80
0.469,0.84,-0.76,4.14,4.29
0.479,-0.31,-1.61,3.43,3.80
0.489,-1.44,-0.43,2.89,3.26
0.499,-0.97,1.76,1.53,2.53
0.509,-1.24,1.41,0.73,2.02
0.519,-2.09,1.00,1.78,2.92
0.529,-0.88,2.72,2.45,3.76
0.539,0.52,1.34,1.85,2.34
0.549,2.94,0.05,3.51,4.57
0.559,1.87,0.68,2.92,3.53
0.569,-0.55,1.70,4.68,5.01
0.579,-1.31,1.80,5.47,5.91
0.589,-1.07,1.16,6.72,6.90
0.599,-2.25,2.25,6.71,7.42
0.609,-3.32,3.80,5.01,7.11
0.619,-4.18,5.08,3.74,7.56
0.629,-5.54,6.70,3.48,9.37
0.639,-6.35,8.20,3.44,10.92
0.649,-6.00,9.22,3.87,11.67
0.659,-5.28,9.76,4.02,11.80
0.669,-4.63,10.15,2.79,11.51
0.679,-4.10,10.23,1.76,11.16
0.689,-3.38,10.09,1.13,10.70
0.699,-2.34,10.03,0.37,10.30
0.709,-0.56,10.14,-0.28,10.16
0.719,1.80,10.50,-0.75,10.68
0.729,4.52,11.17,-2.17,12.24
0.739,6.99,11.96,-3.94,14.40
0.749,9.49,12.30,-5.34,16.43
0.759,11.92,11.80,-6.71,18.06
0.769,13.78,9.93,-7.33,18.50
0.779,13.70,7.58,-7.55,17.38
0.789,13.03,6.02,-8.24,16.56
0.799,12.19,4.76,-9.79,16.34
0.809,11.68,3.62,-10.74,16.28
0.819,11.78,3.56,-10.85,16.41
0.829,11.82,3.51,-10.57,16.24
0.839,11.38,2.06,-10.38,15.54
0.849,10.60,0.80,-10.82,15.17
0.859,10.20,-0.16,-10.81,14.87
0.869,12.41,-0.08,-9.13,15.41
0.879,13.79,-1.13,-4.24,14.47
0.889,10.95,-7.41,0.67,13.24
0.899,12.03,-11.68,3.58,17.14
0.909,11.84,-13.66,5.55,18.91
0.919,9.27,-12.32,9.72,18.23
0.929,8.65,-11.55,9.32,17.18
0.939,6.74,-7.44,7.43,12.49
0.949,5.51,-2.68,4.07,7.35
0.959,3.23,-0.69,0.63,3.37
0.969,0.90,-0.30,0.60,1.13
0.979,-0.07,-0.67,0.57,0.88
0.989,-1.17,-1.65,0.60,2.11
0.999,-2.35,-3.30,0.64,4.11
1.008,-3.17,-4.43,1.23,5.58
1.018,-3.48,-4.53,2.01,6.05
1.028,-3.96,-4.11,2.13,6.10
1.039,-4.38,-3.40,2.37,6.03
1.048,-5.19,-2.80,2.12,6.26
1.058,-6.35,-1.90,1.91,6.90
1.068,-6.74,-0.23,1.18,6.85
1.079,-6.29,1.25,0.13,6.41
1.088,-5.85,1.38,-0.50,6.03
1.098,-6.00,0.12,-0.35,6.01
1.108,-5.93,-2.60,-0.56,6.51
1.118,-4.86,-3.96,0.19,6.27
1.128,-4.52,-4.51,0.70,6.42
1.138,-5.01,-6.75,1.01,8.47
1.148,-4.88,-7.23,1.70,8.89
1.158,-2.12,-1.34,-0.48,2.55
1.168,0.19,3.85,-4.49,5.92
1.178,1.44,5.34,-6.19,8.31
1.188,2.29,3.80,-5.01,6.69
1.198,4.01,2.17,-1.11,4.69
1.208,9.12,2.74,-0.45,9.54
1.218,6.04,-3.67,0.09,7.07
1.228,0.52,-9.34,5.04,10.62
1.238,4.80,-2.46,4.25,6.87
1.248,6.80,3.85,-1.73,8.01
1.258,4.32,4.08,-3.34,6.81
1.268,3.28,2.30,-1.90,4.43
1.278,4.35,0.46,0.54,4.40
1.288,4.96,0.39,3.22,5.93
1.298,3.95,0.82,3.16,5.13
1.308,1.91,1.11,1.85,2.89
1.318,0.09,0.75,0.89,1.17
1.328,-1.16,0.04,0.28,1.19
1.338,-1.01,0.13,-1.06,1.47
1.348,0.14,1.75,-1.78,2.50
1.358,1.98,2.59,-3.34,4.66
1.368,2.69,1.98,-4.36,5.49
1.378,2.73,1.16,-4.33,5.25
1.388,2.17,0.11,-3.62,4.22
1.398,1.97,-0.83,-2.81,3.53
1.408,1.78,-1.52,-2.01,3.09
1.418,1.85,-1.91,-1.58,3.10
1.428,2.03,-1.43,-0.67,2.57
1.438,2.13,-0.92,0.15,2.32
1.448,1.98,-0.94,0.57,2.27
1.458,2.01,-1.20,0.50,2.40
1.468,2.21,-1.94,1.07,3.13
1.478,2.19,-2.45,0.63,3.35
1.488,2.64,-2.90,0.76,3.99
1.498,3.31,-3.83,0.40,5.07
1.508,1.10,-9.80,-0.28,9.87
1.518,-5.17,-14.67,14.13,21.01
1.528,-1.78,-12.27,20.09,23.60
1.538,12.62,10.59,-7.30,18.02
1.548,6.83,7.82,-4.82,11.45
1.558,1.32,4.21,-1.31,4.60
1.568,1.13,4.30,-5.02,6.70
1.578,-2.36,0.76,-5.26,5.82
1.588,-3.59,-0.95,-5.26,6.44
1.598,-2.59,-0.40,-4.65,5.34
1.608,-2.37,0.89,-3.80,4.56
1.618,-1.34,1.08,-2.96,3.43
1.628,-0.08,2.27,-4.11,4.70
1.638,-0.33,3.65,-4.86,6.09
1.648,-0.88,3.82,-4.91,6.29
1.658,-1.67,3.79,-3.78,5.60
1.667,-1.90,3.41,-2.74,4.77
1.678,-1.35,2.28,-2.16,3.42
1.688,-1.23,1.53,-1.61,2.54
1.698,-1.92,0.70,-0.74,2.18
1.707,-2.66,0.40,1.34,3.01
1.718,-3.44,2.26,3.70,5.53
1.728,-3.98,4.26,3.39,6.75
1.737,-3.15,3.69,1.90,5.21
1.747,-2.67,2.60,2.57,4.53
1.757,-1.94,2.15,2.23,3.66
1.767,-0.92,2.07,0.66,2.36
1.777,-0.67,2.16,-0.01,2.26
1.787,-1.04,2.59,-0.97,2.96
1.797,-1.49,2.81,-2.72,4.18
1.807,-2.22,2.23,-2.72,4.16
1.817,-1.94,1.17,-2.41,3.31
1.827,-0.40,2.86,-1.77,3.39
1.837,1.13,5.37,0.03,5.49
1.847,2.20,4.97,-0.23,5.44
1.857,3.50,3.38,-3.27,5.86
1.867,3.40,1.02,-4.96,6.10
1.877,2.62,-0.76,-2.05,3.41
1.887,2.65,-0.95,1.64,3.26
1.897,1.01,-1.17,3.59,3.91
1.907,-0.54,-1.84,3.81,4.26
1.917,-1.06,-2.86,4.91,5.78
1.927,-1.66,-2.96,5.29,6.29
1.937,-3.17,-1.35,4.34,5.54
1.947,-3.69,-0.51,2.71,4.61
1.957,-3.72,-0.52,2.78,4.68
1.967,-3.70,-0.98,2.37,4.50
1.977,-3.53,-1.63,1.82,4.29
1.987,-2.86,-2.73,0.94,4.06
1.997,-2.14,-4.85,0.45,5.31
2.007,-1.15,-5.40,0.14,5.52
2.017,0.53,-2.87,0.05,2.91
2.027,1.07,-4.21,-1.52,4.60
2.037,1.91,-5.51,-2.81,6.47
2.047,1.83,-5.71,-2.29,6.42
2.057,1.75,-5.71,-1.95,6.28
2.067,2.00,-4.93,-1.94,5.66
2.077,2.53,-4.28,-1.33,5.14
2.087,3.17,-4.92,0.29,5.86
2.097,4.26,-5.37,1.46,7.01
2.107,5.17,-4.65,2.19,7.29
2.117,5.13,-3.86,2.63,6.94
2.127,4.43,-3.45,2.28,6.06
2.137,3.87,-2.42,1.53,4.81
2.147,3.26,-1.77,1.19,3.89
2.157,2.80,-0.58,1.02,3.04
2.167,1.74,2.04,-0.43,2.72
2.177,-0.77,3.68,-1.31,3.98
2.187,-2.33,3.41,-0.38,4.15
2.197,-2.18,2.37,-0.16,3.22
2.207,-1.90,1.62,-0.57,2.57
2.217,2.52,-0.89,-2.39,3.58
2.227,6.95,-2.88,-3.80,8.43
2.237,3.81,1.00,-6.03,7.21
2.247,-0.94,3.71,-8.11,8.97
2.257,-5.30,3.35,-7.17,9.53
2.266,-9.46,4.34,-2.43,10.69
2.277,-13.17,5.24,-2.51,14.39
2.287,-13.61,4.49,-2.97,14.64
2.297,-9.80,2.25,-1.89,10.23
2.307,-5.10,0.82,0.67,5.21
2.317,-2.19,0.16,0.54,2.26
2.327,-0.22,-0.11,-0.74,0.77
2.336,0.94,0.05,-1.35,1.64
2.347,1.23,0.60,-1.77,2.24
2.357,1.02,1.49,-1.47,2.33
2.366,0.76,2.16,-0.89,2.45
2.377,0.19,3.52,0.70,3.59
2.387,-0.36,5.05,1.54,5.29
2.397,-0.91,6.45,2.44,6.95
2.406,-1.63,6.62,3.85,7.83
2.416,-1.28,4.63,3.42,5.90
2.426,-0.89,2.86,2.75,4.07
2.436,-1.17,2.23,2.52,3.56
2.446,-1.13,2.46,4.66,5.39
2.456,-2.61,0.17,5.28,5.89
2.466,-2.99,-1.25,0.39,3.27
2.476,-1.47,-3.48,-2.69,4.64
2.486,-0.27,-5.19,-1.47,5.40
2.496,0.70,-5.15,0.89,5.27
2.506,1.05,-5.03,2.20,5.59
2.516,0.72,-5.49,3.20,6.40
2.526,0.86,-5.68,2.81,6.39
2.536,1.84,-5.06,2.05,5.76
2.546,2.23,-4.96,1.27,5.59
2.556,2.22,-3.41,0.90,4.17
2.566,2.75,0.54,-0.32,2.82
2.576,2.53,3.11,-1.68,4.34
2.586,2.22,4.71,-2.73,5.88
2.596,1.57,6.10,-2.86,6.92
2.606,1.18,5.79,1.32,6.06
2.616,0.87,5.80,1.14,5.98
2.626,-0.19,4.98,-0.04,4.98
2.636,-2.19,1.28,0.26,2.55
2.646,-3.70,-2.39,-1.02,4.52
2.656,-4.43,-11.42,-5.43,13.40
2.666,-5.01,-21.86,5.79,23.16
2.676,-3.91,-19.82,6.10,21.10
2.686,0.15,-8.28,1.99,8.51
2.696,0.99,-0.25,2.70,2.89
2.706,0.79,4.06,-0.32,4.15
2.716,0.44,5.06,-3.60,6.22
2.726,1.05,3.16,-4.39,5.51
2.736,1.51,2.42,-2.46,3.76
2.746,1.79,3.33,0.12,3.78
2.756,2.13,4.06,2.04,5.02
2.766,2.69,2.33,4.92,6.07
2.776,3.94,-0.80,2.23,4.60
2.786,4.97,-3.68,-2.23,6.57
2.796,5.55,-3.72,-4.63,8.12
2.806,5.27,-1.21,-5.94,8.03
2.816,4.48,0.57,-7.76,8.97
2.826,3.13,1.71,-9.20,9.86
2.836,2.21,2.80,-8.71,9.42
2.846,2.36,4.03,-7.34,8.70
2.856,-0.06,12.36,-4.77,13.25
2.866,-5.14,21.91,-1.06,22.52
2.877,-6.68,18.62,3.23,20.05
2.886,-2.53,7.20,9.25,11.99
2.896,-2.24,2.15,6.67,7.35
2.906,-3.40,0.64,0.09,3.46
2.916,-4.18,-1.50,0.27,4.45
2.926,-4.74,-3.91,1.55,6.34
2.936,-5.05,-5.66,1.39,7.71
2.946,-5.40,-6.63,0.60,8.57
2.956,-5.48,-7.31,0.18,9.14
2.966,-5.05,-7.77,0.16,9.27
2.976,-4.28,-7.86,0.25,8.95
2.986,-3.55,-7.87,0.39,8.65
2.995,-2.84,-7.19,0.27,7.74
3.005,-2.22,-5.99,0.04,6.39
3.016,-1.70,-4.51,-0.13,4.82
3.025,-1.06,-2.95,0.06,3.14
3.036,-0.15,-1.72,0.43,1.78
3.045,0.91,-0.82,0.47,1.31
3.055,1.85,-0.48,0.07,1.91
3.066,2.10,0.17,-0.51,2.17
3.075,1.30,1.64,-0.94,2.30
3.086,0.20,3.23,-1.24,3.46
3.095,-0.20,3.63,-1.30,3.86
3.105,0.22,1.74,-1.00,2.02
3.115,0.28,-0.58,-0.32,0.72
3.125,-0.71,-2.00,0.34,2.15
3.135,-1.91,-2.87,0.69,3.52
3.145,-2.51,-3.11,0.67,4.05
3.155,-2.60,-2.89,0.34,3.91
3.165,-2.56,-2.38,0.14,3.49
3.175,-2.46,-1.97,0.06,3.16
3.185,-2.48,-1.69,0.04,3.00
3.195,-2.29,-0.80,-0.12,2.43
3.205,-2.16,0.79,-0.30,2.32
3.215,-1.98,2.62,-0.57,3.33
3.225,-1.38,4.21,-1.11,4.57
3.235,-0.18,5.81,-1.52,6.01
3.245,1.32,6.92,-1.71,7.25
3.255,2.71,7.57,-1.62,8.20
3.265,3.57,7.25,-2.00,8.33
3.275,3.71,6.04,-2.61,7.55
3.285,3.51,4.79,-3.23,6.76
3.295,3.56,4.07,-3.48,6.43
3.305,3.61,3.60,-3.66,6.28
3.315,3.72,3.36,-3.87,6.33
3.325,3.89,3.04,-3.91,6.30
3.335,4.08,2.74,-3.74,6.18
3.345,4.01,2.42,-3.36,5.76
3.355,3.45,1.86,-2.51,4.65
3.365,2.30,0.54,-1.13,2.62
3.375,0.66,-0.96,0.37,1.22
3.385,-0.37,-2.29,1.43,2.72
3.395,-0.20,-3.03,1.88,3.57
3.405,0.23,-3.22,2.12,3.86
3.415,0.42,-3.36,2.24,4.06
3.425,1.68,-4.36,1.26,4.84
3.435,2.89,-6.39,1.23,7.12
3.445,2.99,-6.44,2.01,7.38
3.455,3.79,-6.39,2.40,7.81
3.465,4.46,-6.44,3.34,8.52
3.475,4.18,-5.60,3.81,7.96
3.485,3.24,-1.35,3.57,5.01
3.495,1.67,3.20,2.87,4.61
3.505,-1.36,7.20,0.34,7.34
3.515,-3.06,8.82,-2.23,9.60
3.525,-1.79,9.18,-2.14,9.59
3.535,-0.06,6.86,-0.78,6.90
3.545,-0.25,2.96,1.11,3.17
3.555,-1.68,-0.32,2.72,3.21
3.565,-2.83,-2.12,3.18,4.75
3.575,-3.66,-2.77,3.19,5.59
3.585,-4.02,-3.12,4.34,6.69
3.595,-3.44,-2.61,4.93,6.55
3.605,-2.40,-1.48,3.78,4.71
3.615,-1.28,0.55,1.15,1.81
3.625,0.04,3.49,-2.15,4.10
3.635,1.22,5.50,-5.18,7.65
3.645,1.84,6.52,-6.47,9.37
3.655,2.19,7.61,-5.45,9.61
3.665,2.82,6.82,-3.49,8.17
3.674,3.27,3.82,-1.87,5.37
3.685,2.85,2.24,-0.94,3.75
3.695,1.95,2.56,-1.26,3.46
3.705,1.59,2.24,-2.31,3.59
3.715,1.76,1.19,-3.36,3.98
3.725,2.11,-0.19,-4.14,4.65
3.735,2.24,-1.12,-4.21,4.89
3.745,2.16,-1.91,-3.80,4.77
3.755,2.26,-3.70,-3.17,5.37
3.765,2.34,-5.88,-1.53,6.51
3.774,2.25,-7.67,1.09,8.07
3.784,2.12,-8.67,2.89,9.38
3.794,0.91,-8.45,4.97,9.84
3.804,-1.59,-6.62,6.32,9.29
3.814,-3.48,-4.65,5.01,7.67
3.824,-5.07,-1.82,3.49,6.42
3.834,-7.67,1.66,1.62,8.01
3.844,-9.19,4.00,0.43,10.04
3.854,-9.16,5.63,0.21,10.76
3.864,-7.58,2.80,0.79,8.12
3.874,-4.88,-2.94,2.36,6.17
3.884,-2.90,-5.09,3.06,6.61
3.894,-1.86,-4.22,2.32,5.16
3.904,-1.65,-3.13,1.68,3.92
3.914,-1.50,-3.21,1.11,3.72
3.924,-1.28,-3.39,0.85,3.72
3.934,-1.01,-3.65,0.59,3.83
3.944,-0.34,-4.01,0.12,4.02
3.954,0.32,-4.04,-0.21,4.05
3.964,0.87,-2.71,0.08,2.84
3.974,1.21,-0.55,0.52,1.43
3.984,0.73,1.74,0.46,1.95
3.994,-0.14,3.54,0.45,3.57
4.004,-0.80,4.63,0.44,4.71
4.014,-0.85,4.67,0.37,4.76
4.024,-0.31,2.44,0.55,2.52
4.034,-0.36,-0.12,0.36,0.52
4.044,-0.69,-1.90,-0.15,2.03
4.054,-0.71,-2.57,-0.51,2.71
4.064,-0.86,-2.59,-0.83,2.86
4.074,-1.20,-2.13,-1.00,2.64
4.084,-1.57,-1.58,-0.94,2.42
4.094,-1.91,-1.20,-0.77,2.38
4.104,-2.25,-1.10,-0.53,2.56
4.114,-2.45,-0.94,-0.39,2.66
4.124,-2.50,-0.81,-0.33,2.65
4.134,-2.28,-0.63,-0.42,2.40
4.144,-1.97,-0.35,-0.80,2.16
4.154,-1.65,-0.25,-1.28,2.11
4.164,-1.14,-0.37,-1.53,1.94
4.174,-0.32,-0.57,-1.76,1.88
4.184,0.56,-0.19,-1.79,1.89
4.194,1.45,0.51,-1.91,2.46
4.204,2.25,1.31,-2.05,3.32
4.214,2.74,2.22,-2.30,4.21
4.224,2.89,3.08,-2.51,4.91
4.234,2.73,3.99,-2.62,5.50
4.244,2.47,4.26,-2.42,5.49
4.254,2.24,4.11,-2.13,5.14
4.264,1.86,4.07,-1.80,4.82
4.274,1.41,4.80,-1.46,5.21
4.284,1.03,5.38,-0.96,5.57
4.294,0.26,6.08,-0.21,6.09
4.304,-0.60,6.42,0.54,6.47
4.314,-1.01,5.32,1.03,5.51
4.324,-0.96,4.10,1.24,4.39
4.334,-0.29,3.17,1.20,3.40
4.343,1.09,2.49,1.02,2.91
4.354,3.12,1.48,0.83,3.56
4.364,5.80,-2.03,0.45,6.16
4.374,7.11,-3.17,3.07,8.37
4.384,6.30,-1.82,3.19,7.29
4.393,4.81,-3.54,3.42,6.88
4.403,3.84,-5.70,3.48,7.70
4.413,3.39,-7.16,2.08,8.19
4.423,3.55,-6.63,-0.18,7.52
4.434,3.66,-4.07,-1.34,5.63
4.443,3.79,-0.81,-1.17,4.05
4.453,3.82,2.77,-1.00,4.83
4.463,3.00,5.70,-1.33,6.58
4.473,0.94,7.13,-2.92,7.76
4.484,-1.98,7.03,-3.62,8.15
4.494,-4.67,5.53,-2.63,7.70
4.503,-6.79,3.09,-0.21,7.47
4.514,-8.25,0.47,2.99,8.78
4.523,-8.34,-1.59,5.15,9.93
4.534,-6.34,-3.22,5.79,9.17
4.543,-3.56,-4.31,4.64,7.26
4.553,-1.15,-4.24,3.01,5.33
4.563,0.49,-3.87,1.90,4.34
4.573,1.14,-3.12,1.06,3.49
4.583,1.23,-2.52,0.26,2.82
4.593,1.25,-2.48,-0.48,2.82
4.603,1.30,-2.61,-0.87,3.05
4.613,1.10,-2.51,-0.33,2.76
4.623,0.76,-2.32,0.38,2.47
4.633,0.41,-1.85,0.77,2.04
4.643,0.13,-1.46,0.89,1.71
4.653,-0.43,-0.86,0.77,1.24
4.663,-1.10,0.23,0.08,1.13
4.673,-1.59,1.77,-1.46,2.80
4.683,-1.88,3.50,-3.63,5.38
4.693,-1.63,4.62,-5.66,7.49
4.703,-0.72,4.26,-6.06,7.44
4.713,0.18,2.93,-4.20,5.12
4.723,0.85,2.49,-1.01,2.82
4.733,1.93,2.89,3.57,4.98
4.743,3.75,4.80,6.04,8.58
4.753,5.57,7.09,4.83,10.23
4.763,5.03,7.83,2.25,9.58
4.773,1.31,8.80,-0.48,8.91
4.783,-4.56,10.09,-0.66,11.09
4.794,-9.69,9.25,-1.18,13.45
4.803,-10.73,1.43,-2.08,11.02
4.813,-8.42,-7.95,-0.74,11.61
4.823,-7.27,-9.15,1.04,11.73
4.833,-5.84,-6.64,1.15,8.92
4.843,-4.30,-6.09,0.18,7.45
4.853,-3.50,-7.17,-0.55,7.99
4.863,-3.12,-7.86,-0.47,8.47
4.873,-2.85,-7.87,-0.25,8.38
4.883,-2.36,-7.24,-0.20,7.61
4.893,-1.46,-5.85,-0.21,6.03
4.903,-0.26,-4.23,-0.18,4.24
4.913,1.24,-2.34,0.06,2.65
4.923,3.25,0.15,0.11,3.26
4.933,5.51,2.35,-0.45,6.00
4.943,6.82,3.76,-1.11,7.87
4.953,6.37,3.96,-1.64,7.67
4.963,5.29,3.66,-1.13,6.53
4.973,3.83,1.52,-1.03,4.24
4.983,1.26,-1.51,-1.30,2.36
4.993,-1.09,-4.30,-0.89,4.52
5.003,-2.09,-6.21,-0.61,6.58
5.013,-1.86,-7.01,-0.96,7.31
5.023,-1.22,-6.60,-2.01,7.01
5.033,-0.79,-5.56,-2.97,6.35
5.043,-0.49,-4.40,-2.90,5.29
5.052,-0.66,-3.68,-1.93,4.20
5.062,-1.21,-2.94,-0.89,3.30
5.073,-1.48,-1.70,-0.15,2.25
5.083,-1.10,0.03,0.40,1.17
5.093,-0.43,1.57,0.49,1.70
5.103,0.14,2.46,-0.10,2.46
5.113,0.57,3.51,-0.85,3.66
5.122,0.35,4.67,-1.33,4.87
5.133,-0.49,5.46,-2.00,5.84
5.142,-1.23,5.74,-2.41,6.34
5.152,-1.31,4.83,-2.40,5.55
5.162,-0.94,3.37,-2.12,4.09
5.172,-0.40,2.94,-2.44,3.84
5.182,0.15,2.94,-2.77,4.04
5.192,0.69,2.87,-3.27,4.41
5.203,0.82,3.08,-3.66,4.85
5.212,0.52,3.20,-2.90,4.35
5.222,0.15,3.53,-1.60,3.88
5.232,-0.44,3.57,0.22,3.60
5.242,-0.89,3.39,2.01,4.04
5.252,-0.73,3.23,2.66,4.25
5.262,-0.62,3.31,3.08,4.56
5.272,-0.57,3.71,3.77,5.32
5.282,-0.30,3.91,4.12,5.69
5.292,0.28,3.23,3.72,4.93
5.302,1.33,1.40,3.25,3.78
5.312,3.39,-2.21,2.58,4.80
5.322,2.59,-3.49,3.16,5.37
5.332,2.20,-3.33,2.70,4.82
5.342,2.60,-4.14,2.61,5.54
5.352,3.69,-5.07,1.82,6.53
5.362,4.72,-4.38,0.95,6.51
5.372,5.29,-1.66,0.82,5.61
5.382,5.48,2.01,1.25,5.97
5.392,5.50,6.23,1.89,8.52
5.402,4.73,9.30,2.08,10.64
5.412,2.75,9.51,1.12,9.96
5.422,0.73,7.82,-0.42,7.86
5.432,-1.00,5.37,-1.25,5.61
5.442,-2.81,3.16,-0.53,4.27
5.452,-4.48,0.73,0.89,4.62
5.462,-5.83,-1.79,1.86,6.38
5.472,-6.53,-3.87,2.06,7.87
5.482,-5.95,-4.82,1.64,7.83
5.492,-3.93,-5.05,0.53,6.42
5.502,-1.24,-5.12,-1.11,5.39
5.512,0.67,-5.13,-2.18,5.61
5.522,1.22,-4.89,-1.76,5.34
5.532,0.93,-4.35,-0.76,4.51
5.542,0.56,-3.60,-0.50,3.68
5.552,0.41,-2.97,-0.64,3.07
5.562,0.42,-2.14,-0.58,2.26
5.572,0.67,-0.71,-0.55,1.12
5.582,0.97,0.60,-1.00,1.52
5.592,1.13,1.13,-1.82,2.43
5.602,1.39,0.83,-2.88,3.30
5.612,1.89,-0.18,-3.71,4.17
5.622,2.18,-1.13,-3.63,4.38
5.632,2.01,-1.05,-2.58,3.43
5.642,1.69,0.25,-0.15,1.72
5.652,2.55,1.23,3.41,4.44
5.662,5.40,2.13,4.16,7.14
5.672,7.70,3.88,2.09,8.87
5.682,5.78,5.96,0.92,8.35
5.692,0.45,7.26,0.87,7.33
5.702,-4.40,7.15,0.76,8.43
5.712,-7.30,5.38,-0.07,9.07
5.722,-7.45,0.71,-0.96,7.55
5.732,-6.41,-5.98,0.05,8.76
5.742,-6.64,-8.61,1.08,10.93
5.752,-6.87,-7.81,1.50,10.51
5.762,-6.26,-7.17,1.38,9.62
5.771,-5.07,-7.13,1.13,8.82
5.782,-3.95,-7.12,0.81,8.18
5.792,-2.97,-6.72,0.73,7.39
5.801,-1.94,-5.54,0.94,5.95
5.812,-0.82,-3.77,1.19,4.04
5.821,0.32,-1.99,1.33,2.41
5.832,1.52,-0.51,0.67,1.74
5.842,2.75,1.04,-0.29,2.95
5.851,3.53,2.77,-0.58,4.53
5.861,3.18,4.02,-0.45,5.15
5.871,1.93,5.33,0.38,5.68
5.881,0.75,6.55,0.70,6.63
5.891,-0.78,5.08,0.76,5.20
5.901,-3.53,0.77,0.55,3.66
5.911,-5.93,-1.95,0.35,6.25
5.921,-7.14,-3.61,-0.01,8.00
5.931,-6.22,-4.21,-1.08,7.59
5.941,-4.06,-3.30,-2.32,5.72
5.951,-2.81,-1.62,-2.39,4.03
5.961,-2.57,-0.55,-1.27,2.92
5.971,-2.32,0.15,-0.51,2.38
5.981,-1.39,1.63,-0.65,2.23
5.991,-0.20,3.28,-1.13,3.48
6.001,0.88,4.07,-1.56,4.44
6.011,1.79,4.78,-1.62,5.36
6.021,2.47,5.40,-1.39,6.09
6.031,2.59,5.09,-1.53,5.91
6.041,2.40,4.19,-2.27,5.34
6.051,2.51,3.36,-3.05,5.19
6.061,3.01,2.75,-3.96,5.69
6.071,3.57,2.32,-4.38,6.11
6.081,4.17,2.18,-4.45,6.48
6.091,4.86,2.37,-4.51,7.04
6.101,5.58,2.48,-4.30,7.47
6.111,6.22,2.13,-3.63,7.51
6.121,6.52,1.44,-2.47,7.12
6.131,5.89,0.65,-1.07,6.02
6.141,4.42,-0.19,0.68,4.47
6.151,3.22,-0.79,2.82,4.35
6.161,3.52,-1.00,4.21,5.58
6.171,4.23,-0.36,4.48,6.17
6.181,4.00,0.62,3.83,5.58
6.191,2.90,1.56,2.70,4.27
6.201,1.11,1.27,1.76,2.44
6.211,-0.79,-0.34,0.76,1.15
6.221,-1.74,-2.95,-1.64,3.80
6.231,-2.51,-4.18,-2.00,5.27
6.241,-3.61,-3.25,-0.59,4.89
6.251,-4.31,-1.31,-0.40,4.52
6.261,-3.98,0.50,-1.51,4.29
6.271,-2.38,1.18,-1.90,3.27
6.281,-0.76,0.13,-0.09,0.77
6.291,-0.73,0.04,1.78,1.92
6.301,-1.35,1.06,2.40,2.95
6.311,-2.19,1.28,2.81,3.78
6.321,-3.02,0.79,3.56,4.74
6.331,-2.78,-0.14,3.87,4.77
6.341,-2.13,-0.68,3.98,4.57
6.351,-1.63,-1.17,4.40,4.84
6.361,-1.14,-1.90,4.07,4.64
6.371,-0.94,-2.80,3.30,4.43
6.381,-0.63,-3.72,3.08,4.87
6.391,-0.42,-3.20,3.39,4.68
6.401,0.47,-1.57,2.32,2.84
6.411,2.23,-0.73,0.10,2.35
6.420,3.99,0.02,-1.19,4.16
6.431,5.10,1.01,-2.08,5.60
6.440,5.16,1.07,-3.10,6.11
6.450,4.27,0.98,-2.64,5.11
6.460,2.70,0.87,-0.98,3.00
6.470,0.98,1.00,0.54,1.50
6.480,-0.62,1.81,1.13,2.22
6.490,-1.70,2.21,1.24,3.05
6.500,-2.32,2.09,1.29,3.38
6.510,-2.06,1.44,0.02,2.51
6.520,-1.34,0.47,-2.21,2.63
6.530,-1.00,-0.51,-3.78,3.94
6.540,-1.22,-1.10,-4.35,4.65
6.550,-1.58,-1.30,-4.42,4.87
6.560,-1.42,-1.42,-3.63,4.15
6.570,-0.53,-0.56,-1.16,1.40
6.580,0.77,1.93,1.42,2.52
6.590,1.79,5.15,2.42,5.97
6.600,2.55,7.34,1.83,7.99
6.610,2.18,8.40,1.49,8.80
6.620,-0.51,9.70,2.48,10.03
6.630,-3.98,10.48,2.22,11.43
6.640,-5.48,6.09,0.74,8.23
6.650,-3.82,-4.83,0.01,6.16
6.660,-3.47,-8.62,0.13,9.29
6.670,-3.92,-7.19,0.85,8.24
6.680,-4.02,-6.34,0.85,7.56
6.690,-4.19,-6.42,-0.19,7.66
6.700,-4.67,-6.66,-0.48,8.15
6.710,-5.19,-6.73,0.04,8.50
6.720,-4.81,-6.25,0.43,7.90
6.730,-3.54,-5.14,0.51,6.26
6.740,-2.02,-3.93,0.83,4.50
6.750,-0.46,-2.09,1.05,2.39
6.760,1.39,0.75,0.53,1.67
6.770,3.03,3.86,-0.17,4.91
6.780,3.30,5.44,-0.59,6.38
6.790,2.37,5.91,-0.12,6.37
6.800,1.21,3.87,0.76,4.13
6.810,0.28,0.39,0.35,0.60
6.820,-0.39,-1.81,-0.45,1.91
6.830,-0.89,-3.70,-0.57,3.84
6.840,-1.33,-5.36,-0.75,5.58
6.850,-1.67,-6.03,-1.12,6.36
6.860,-1.77,-5.64,-1.24,6.04
6.870,-1.54,-4.85,-1.14,5.21
6.880,-1.15,-4.22,-0.82,4.45
6.890,-0.93,-3.77,-0.19,3.89
6.900,-0.93,-3.12,0.40,3.28
6.910,-1.16,-2.40,0.80,2.78
6.920,-1.25,-1.52,0.41,2.01
6.930,-1.02,-0.55,-0.43,1.23
6.940,-0.67,0.95,-1.19,1.66
6.950,-0.95,3.19,-2.13,3.95
6.960,-1.21,4.86,-2.67,5.68
6.970,-1.16,5.26,-2.38,5.89
6.980,-0.79,2.96,-2.15,3.74
6.990,0.38,0.66,-2.25,2.38
7.000,1.59,0.34,-2.19,2.73
7.010,2.64,0.43,-2.30,3.53
7.020,3.61,0.89,-2.80,4.66
7.030,4.01,1.73,-2.58,5.08
7.040,3.87,2.89,-1.90,5.19
7.050,3.61,3.82,-1.02,5.36
7.060,3.06,4.40,-0.53,5.38
7.070,2.28,5.14,0.07,5.62
7.080,1.68,5.80,0.70,6.07
7.090,1.15,6.32,1.28,6.55
7.100,0.58,7.07,1.93,7.36
7.110,0.92,8.08,2.26,8.44
7.119,2.12,9.20,2.77,9.84
7.130,2.26,8.91,2.93,9.65
7.139,1.46,6.51,2.67,7.19
7.150,0.47,4.54,2.44,5.17
7.159,-0.57,3.11,1.96,3.72
7.169,-1.43,1.66,0.88,2.36
7.180,-1.72,-1.29,-0.57,2.23
7.189,-0.75,-5.48,-3.25,6.41
7.199,0.23,-7.76,-1.01,7.83
7.209,0.04,-7.90,0.51,7.92
7.219,-0.32,-7.48,-0.28,7.49
7.230,0.03,-8.21,-1.55,8.36
7.239,0.65,-9.27,-1.78,9.46
7.250,1.29,-9.52,-2.09,9.83
7.259,1.83,-8.32,-2.50,8.88
7.269,2.12,-4.96,-2.08,5.78
7.279,2.10,-1.14,-1.47,2.80
7.289,2.18,2.52,-1.25,3.56
7.299,1.46,5.13,-1.71,5.60
7.309,-0.61,7.28,-1.43,7.45
7.319,-2.63,8.00,-0.44,8.44
7.329,-4.01,5.49,2.53,7.25
7.339,-3.96,1.76,5.78,7.22
7.349,-3.71,-0.90,6.91,7.90
7.359,-3.46,-1.45,6.74,7.72
7.369,-2.34,-1.99,5.92,6.67
7.379,-0.86,-2.26,4.18,4.83
7.389,0.54,-2.21,1.39,2.66
7.399,1.12,-1.41,-1.12,2.12
7.409,1.04,-0.68,-2.77,3.04
7.419,0.67,-0.40,-3.50,3.59
7.429,0.51,-0.41,-3.70,3.75
7.439,0.77,-0.66,-2.89,3.07
7.449,1.10,-1.08,-1.11,1.90
7.459,1.32,-1.58,0.24,2.07
7.469,1.24,-1.71,0.95,2.31
7.479,0.94,-1.44,0.91,1.95
7.489,0.70,-0.86,0.07,1.11
7.499,0.77,-0.16,-0.98,1.25
7.509,1.19,0.44,-1.76,2.17
7.519,1.86,0.66,-2.52,3.20
7.529,2.49,0.40,-3.00,3.92
7.539,2.90,-0.09,-3.19,4.31
7.549,2.99,-0.55,-3.06,4.32
7.559,3.13,-0.64,-1.72,3.63
7.569,3.65,-0.27,0.76,3.74
7.579,4.16,1.40,1.93,4.80
7.589,4.52,4.93,0.85,6.75
7.599,4.28,8.06,0.23,9.13
7.609,1.06,9.66,0.24,9.73
7.619,-4.88,10.02,0.50,11.16
7.629,-9.96,8.60,0.29,13.16
7.639,-10.42,2.71,-0.46,10.78
7.649,-6.84,-4.10,0.92,8.03
7.659,-4.80,-5.38,2.36,7.59
7.669,-3.75,-5.07,2.61,6.83
7.679,-2.92,-4.89,2.44,6.20
7.689,-2.36,-5.11,2.31,6.08
7.699,-1.82,-5.39,2.31,6.14
7.709,-1.24,-5.21,2.11,5.76
7.719,-0.71,-4.06,1.57,4.41
7.729,-0.38,-2.56,1.02,2.78
7.738,-0.15,-1.15,0.65,1.32
7.749,-0.03,0.46,0.60,0.76
7.759,-0.42,1.99,0.51,2.10
7.769,-1.20,3.34,0.46,3.58
7.779,-2.21,4.34,1.22,5.02
7.788,-2.84,4.79,2.21,5.99
7.799,-2.49,4.50,2.39,5.68
7.809,-1.64,1.95,1.63,3.03
7.818,-1.25,-1.13,0.87,1.90
7.829,-1.08,-3.11,0.59,3.35
7.838,-0.90,-4.50,0.21,4.59
7.848,-0.57,-5.27,-0.54,5.33
7.858,-0.23,-5.68,-1.32,5.84
7.868,-0.00,-5.54,-2.11,5.93
7.878,-0.01,-4.99,-2.59,5.62
7.888,-0.09,-4.59,-2.63,5.29
7.898,-0.31,-4.16,-2.39,4.81
7.908,-0.64,-3.18,-1.95,3.78
7.918,-0.82,-1.92,-1.23,2.42
7.928,-0.88,-0.70,-0.50,1.23
7.938,-0.63,-0.05,-0.57,0.85
7.948,-0.42,0.49,-1.06,1.24
7.958,-0.54,1.12,-1.47,1.93
7.968,-0.65,1.39,-1.92,2.45
7.978,-0.43,1.47,-2.25,2.72
7.988,0.17,1.46,-2.56,2.95
7.998,0.93,1.12,-2.61,2.99
8.008,1.46,0.85,-2.45,2.98
8.018,1.58,1.11,-2.22,2.94
8.028,1.47,2.00,-2.42,3.46
8.038,1.50,3.20,-2.63,4.40
8.048,1.83,4.15,-2.26,5.07
8.058,1.82,4.30,-1.47,4.89
8.068,1.41,4.45,-0.89,4.75
8.078,0.65,5.08,-0.42,5.14
8.088,-0.27,6.07,0.23,6.08
8.098,-0.92,6.76,1.25,6.94
8.108,-0.53,7.08,1.68,7.29
8.118,0.65,7.10,1.75,7.34
8.128,1.65,6.30,1.77,6.75
8.138,2.04,4.65,1.62,5.33
8.148,2.06,2.84,1.70,3.90
8.158,2.07,1.92,1.80,3.35
8.168,2.13,1.41,1.55,2.99
8.178,2.92,-0.15,0.98,3.09
8.188,4.93,-4.39,-0.13,6.60
8.198,4.12,-6.80,1.09,8.02
8.208,3.00,-8.09,0.35,8.63
8.218,2.20,-9.95,0.29,10.19
8.228,1.55,-9.77,-0.16,9.89
8.238,0.84,-7.26,-1.12,7.40
8.248,-0.12,-3.00,-0.83,3.11
8.258,-0.51,0.27,-0.41,0.71
8.268,-1.06,4.35,0.21,4.49
8.278,-1.60,10.00,-0.10,10.13
8.288,-1.80,14.01,-3.03,14.45
8.299,-2.45,12.28,-2.82,12.83
8.308,-3.13,6.84,2.37,7.89
8.318,-3.71,2.04,7.40,8.52
8.328,-4.17,-1.25,8.73,9.75
8.338,-3.85,-2.98,7.38,8.84
8.348,-2.86,-4.04,5.89,7.70
8.358,-1.32,-4.77,3.80,6.24
8.368,0.37,-4.82,2.00,5.23
8.378,1.65,-4.19,0.87,4.58
8.388,2.10,-3.75,-0.24,4.30
8.398,1.84,-2.52,-0.99,3.27
8.408,1.68,-1.98,-1.58,3.04
8.418,1.58,-2.03,-1.79,3.13
8.428,1.27,-2.27,-0.91,2.76
8.438,0.79,-1.95,0.53,2.17
8.448,0.26,-1.29,1.92,2.33
8.458,-0.18,-0.89,2.61,2.76
8.468,-0.45,-0.87,2.48,2.66
8.477,-0.66,-1.27,1.81,2.31
8.487,-0.83,-1.83,0.88,2.19
8.497,-0.82,-2.49,-0.29,2.64
8.508,-0.75,-3.14,-1.39,3.52
8.518,-0.67,-3.58,-2.52,4.43
8.528,-0.82,-3.41,-3.61,5.03
8.537,-1.20,-2.22,-4.18,4.89
8.547,-1.30,-1.15,-3.72,4.10
8.557,-0.82,0.03,-2.13,2.29
8.567,0.06,2.45,0.47,2.50
8.577,1.78,6.24,3.85,7.55
8.587,4.47,10.09,5.99,12.56
8.597,7.54,12.87,2.85,15.19
8.609,8.40,12.81,-3.15,15.64
8.618,4.51,12.96,-3.80,14.24
8.628,-2.35,11.11,-1.05,11.40
8.637,-5.37,3.17,-0.78,6.28
8.647,-5.10,-2.79,-1.03,5.90
8.657,-4.25,-2.86,0.19,5.12
8.667,-3.32,-0.83,0.55,3.46
8.677,-3.11,-0.65,-0.36,3.19
8.687,-2.94,-2.02,-0.87,3.67
8.697,-2.47,-3.54,-0.54,4.35
8.707,-1.55,-4.45,-0.11,4.71
8.717,-0.41,-4.90,0.10,4.92
8.727,0.50,-4.98,0.32,5.01
8.737,1.09,-4.72,0.55,4.88
8.747,1.48,-4.25,0.84,4.58
8.757,1.56,-3.70,1.15,4.17
8.767,1.62,-2.79,1.42,3.53
8.777,1.73,-1.35,1.54,2.68
8.787,1.54,0.43,1.12,1.95
8.797,1.29,2.54,0.40,2.87
8.807,1.00,4.53,-0.38,4.66
8.817,0.53,5.03,-1.62,5.32
8.827,-0.17,3.38,-2.03,3.95
8.837,-1.11,0.50,-1.55,1.97
8.847,-1.73,-1.86,-0.86,2.68
8.857,-1.88,-3.76,0.11,4.21
8.867,-1.56,-5.18,0.22,5.41
8.877,-1.17,-5.95,-0.79,6.12
8.887,-1.14,-6.29,-1.58,6.58
8.897,-1.17,-6.22,-1.94,6.62
8.907,-1.30,-6.10,-2.37,6.67
8.917,-1.46,-5.97,-2.38,6.59
8.927,-1.51,-5.46,-1.84,5.96
8.937,-1.46,-4.60,-1.07,4.95
8.947,-1.25,-3.39,-0.58,3.65
8.957,-0.89,-2.06,-0.65,2.33
8.967,-0.57,-0.60,-1.17,1.43
8.977,-0.58,1.01,-1.56,1.95
8.987,-0.87,2.31,-1.81,3.06
8.997,-1.42,2.80,-1.75,3.60
9.007,-1.54,2.29,-1.24,3.03
9.017,-1.16,1.75,-0.76,2.23
9.027,-0.93,2.05,-1.14,2.53
9.037,-0.97,2.22,-2.17,3.26
9.047,-1.03,2.17,-3.17,3.97
9.057,-0.85,2.66,-3.60,4.56
9.067,-0.34,3.54,-3.42,4.93
9.077,0.48,4.27,-2.85,5.16
9.087,1.18,4.29,-2.32,5.02
9.097,1.53,4.22,-1.74,4.82
9.107,1.05,4.09,-0.86,4.31
9.117,-0.11,4.28,-0.47,4.30
9.127,-1.12,4.52,-0.09,4.66
9.137,-1.52,4.74,0.24,4.98
9.147,-1.23,5.26,0.18,5.40
9.157,-1.12,5.34,0.72,5.50
9.166,-0.87,4.68,2.54,5.40
9.177,0.24,3.70,3.01,4.77
9.186,1.57,2.25,1.77,3.27
9.197,2.77,0.03,1.12,2.99
9.207,5.31,-3.34,0.96,6.35
9.216,5.96,-5.15,-0.06,7.88
9.227,5.46,-5.56,-0.29,7.80
9.236,4.72,-6.30,0.99,7.93
9.246,4.14,-5.98,1.86,7.50
9.256,3.84,-3.60,1.95,5.61
9.266,4.43,-0.88,1.62,4.80
9.276,4.56,1.16,1.61,4.98
9.286,3.30,3.28,1.32,4.84
9.296,0.63,5.69,0.76,5.77
9.306,-1.93,8.20,0.66,8.45
9.316,-3.98,10.58,0.00,11.31
9.326,-5.87,10.96,-0.22,12.43
9.336,-7.39,7.40,1.27,10.54
9.346,-8.10,3.36,3.02,9.28
9.356,-7.93,0.48,4.02,8.90
9.366,-6.67,-2.14,4.47,8.31
9.376,-4.75,-3.81,4.02,7.29
9.386,-2.78,-4.50,2.95,6.05
9.396,-0.71,-4.64,1.94,5.08
9.406,0.96,-4.99,0.78,5.14
9.416,2.06,-5.61,0.41,5.99
9.426,2.58,-5.91,0.98,6.53
9.436,2.75,-5.94,1.42,6.70
9.446,2.57,-6.12,1.23,6.75
9.456,2.21,-6.28,1.11,6.75
9.466,1.75,-5.50,1.28,5.92
9.476,1.32,-4.79,1.12,5.09
9.486,0.88,-5.50,0.70,5.61
9.496,0.10,-5.87,0.47,5.89
9.506,-0.71,-6.06,0.28,6.11
9.516,-1.01,-6.19,0.05,6.27
9.526,-1.33,-5.61,0.04,5.77
9.536,-1.71,-4.57,-1.07,4.99
9.546,-1.88,-3.21,-2.45,4.45
9.556,-2.38,0.86,-2.89,3.84
9.566,-2.90,7.53,-3.06,8.63
9.576,-1.49,10.98,-5.83,12.51
9.586,1.54,12.06,-9.29,15.30
9.597,4.37,12.61,-7.39,15.25
9.606,7.42,12.62,1.08,14.68
9.616,10.12,7.91,8.01,15.14
9.626,8.91,3.87,5.92,11.37
9.636,5.40,3.55,0.52,6.48
9.646,0.99,5.54,-2.90,6.33
9.656,-3.37,7.24,-3.55,8.74
9.666,-6.79,8.21,-2.45,10.93
9.676,-8.26,6.13,-0.95,10.33
9.686,-7.17,-0.18,-0.30,7.18
9.696,-5.53,-4.14,1.13,7.00
9.706,-3.77,-5.49,1.90,6.93
9.716,-2.58,-5.62,1.64,6.40
9.726,-2.09,-5.80,1.09,6.26
9.736,-1.27,-6.03,0.43,6.18
9.746,-0.55,-6.55,-0.05,6.57
9.755,-0.50,-7.09,-0.39,7.12
9.766,-0.84,-7.35,-0.42,7.41
9.776,-1.26,-6.86,-0.20,6.98
9.786,-1.44,-5.54,0.28,5.73
9.796,-1.39,-3.71,0.86,4.05
9.805,-0.95,-2.39,1.50,2.97
9.815,-0.26,-1.14,1.50,1.90
9.826,0.30,0.99,1.03,1.46
9.835,0.44,3.51,0.27,3.55
9.846,0.29,6.17,-0.14,6.17
9.855,0.20,7.71,0.25,7.71
9.866,0.65,5.01,0.57,5.09
9.875,-0.29,-1.16,0.91,1.50
9.885,-1.79,-4.05,1.32,4.62
9.895,-2.10,-4.97,0.89,5.47
9.905,-2.02,-5.35,0.05,5.72
9.915,-1.96,-5.31,-1.01,5.75
9.925,-1.89,-4.70,-1.98,5.43
9.935,-1.93,-4.08,-2.42,5.12
9.946,-2.02,-3.47,-2.24,4.60
9.955,-2.02,-2.57,-1.57,3.63
9.965,-1.85,-1.15,-0.60,2.26
9.975,-1.72,0.52,-0.09,1.80
9.985,-1.83,1.98,-0.40,2.73
9.995,-2.16,2.77,-0.86,3.62
10.005,-2.39,3.06,-1.63,4.21
10.015,-2.20,2.73,-2.27,4.18
10.025,-1.75,1.82,-2.28,3.40
10.035,-1.23,0.72,-2.23,2.64
10.045,-0.79,-0.13,-2.28,2.42
10.055,-0.35,-0.53,-2.38,2.46
10.065,0.32,-0.52,-2.87,2.93
10.075,1.14,-0.33,-3.30,3.51
10.085,1.88,-0.05,-3.51,3.98
10.095,2.55,0.35,-3.42,4.28
10.105,3.20,0.85,-3.03,4.48
10.115,3.76,1.43,-2.82,4.91
10.125,4.28,2.06,-2.96,5.60
10.135,4.99,2.67,-3.25,6.52
10.145,5.19,3.33,-3.14,6.92
10.155,4.59,4.16,-3.06,6.91
10.165,3.43,4.48,-3.03,6.40
10.175,1.98,4.33,-3.05,5.66
10.185,0.12,4.51,-2.44,5.12
10.195,-1.65,5.02,-1.40,5.47
10.205,-1.17,5.54,-0.25,5.67
10.215,2.25,5.72,-0.10,6.15
10.225,5.85,5.88,0.31,8.30
10.235,7.62,5.55,1.11,9.49
10.245,7.28,3.63,0.27,8.14
10.255,5.26,0.44,-0.16,5.28
10.265,3.49,-2.16,-0.47,4.13
10.275,2.71,-3.85,-1.27,4.87
10.285,2.94,-5.01,-1.81,6.09
10.295,4.00,-5.62,-1.50,7.06
10.305,5.37,-5.99,-0.79,8.08
10.315,6.35,-6.10,0.17,8.81
10.325,6.44,-5.87,1.42,8.83
10.335,5.78,-5.49,2.03,8.23
10.345,4.84,-5.36,2.50,7.64
10.355,3.68,-5.30,2.80,7.03
10.365,2.46,-4.97,2.87,6.24
10.375,1.19,-4.06,2.82,5.09
10.385,-0.25,-2.79,2.80,3.96
10.395,-2.01,-0.58,2.72,3.43
10.405,-4.04,2.98,2.34,5.54
10.414,-6.36,7.84,0.96,10.14
10.425,-8.13,12.75,-0.17,15.12
10.435,-7.94,13.90,0.28,16.01
10.445,-5.03,8.78,2.67,10.47
10.455,-2.93,3.04,4.90,6.47
10.464,-2.30,-1.06,5.95,6.47
10.475,-2.56,-3.30,5.83,7.18
10.484,-2.51,-5.43,4.89,7.73
10.495,-1.91,-7.32,3.72,8.43
10.505,-1.36,-8.63,2.40,9.06
10.514,-0.77,-7.22,1.30,7.37
10.525,0.06,-5.19,0.41,5.20
10.534,1.12,-4.10,-0.59,4.29
10.544,2.29,-3.58,-2.06,4.72
10.554,3.00,-2.47,-3.83,5.46
10.564,3.04,-0.62,-4.96,5.85
10.574,3.02,0.90,-4.80,5.74
10.584,3.45,2.44,-3.69,5.61
10.594,4.22,3.88,-1.82,6.02
10.604,4.52,4.55,0.02,6.42
10.614,4.02,4.19,1.92,6.12
10.625,3.24,3.02,3.65,5.74
10.634,2.47,1.03,4.79,5.49
10.644,1.88,-1.29,5.15,5.64
10.654,1.52,-2.75,4.71,5.66
10.664,0.97,-0.97,3.49,3.75
10.674,0.60,0.55,2.35,2.49
10.684,0.89,0.27,1.08,1.43
10.694,1.17,-0.12,-0.52,1.28
10.704,1.31,-0.82,-1.81,2.38
10.714,1.44,-1.74,-2.59,3.44
10.724,1.69,-2.83,-2.87,4.37
10.734,2.04,-3.87,-2.95,5.28
10.744,2.52,-4.61,-2.85,5.97
10.754,3.14,-5.01,-2.45,6.40
10.764,3.86,-5.35,-2.04,6.90
10.774,4.46,-5.26,-1.79,7.13
10.784,5.14,-5.05,-1.43,7.35
10.794,6.01,-5.25,-0.49,8.00
10.804,6.17,-5.62,1.77,8.53
10.814,5.06,-6.72,3.60,9.15
10.824,3.56,-7.38,4.16,9.19
10.834,2.60,-4.43,2.11,5.56
10.844,-1.12,2.95,1.65,3.56
10.854,-6.29,15.27,5.40,17.37
10.864,-9.66,31.00,8.53,33.57
10.875,-13.70,35.69,5.36,38.60
10.884,-11.92,15.13,3.55,19.59
10.894,-6.02,-0.40,2.36,6.48
10.904,-3.87,-5.78,1.46,7.10
10.914,-3.89,-7.74,0.78,8.69
10.924,-4.89,-7.76,0.91,9.22
10.934,-6.79,-6.07,1.25,9.19
10.944,-8.11,-3.55,0.38,8.86
10.954,-7.78,-2.11,-1.76,8.26
10.964,-6.49,-1.35,-3.58,7.53
10.974,-4.96,-0.30,-4.67,6.82
10.984,-3.60,1.94,-6.94,8.05
10.994,-2.58,4.41,-9.18,10.50
11.004,-1.89,5.19,-8.32,9.99
11.014,-1.22,3.96,-4.32,5.99
11.024,-0.23,1.99,-0.78,2.14
11.034,0.92,0.46,-0.21,1.05
11.044,2.46,0.16,-1.90,3.11
11.054,3.29,-0.32,-2.50,4.14
11.064,2.65,-0.98,-2.59,3.84
11.074,1.54,-1.84,-3.31,4.09
11.084,0.49,-2.79,-3.64,4.61
11.094,-0.23,-2.72,-3.09,4.12
11.104,-0.89,-2.30,-3.30,4.12
11.114,-1.44,-1.84,-3.75,4.42
11.123,-1.55,-1.29,-3.71,4.22
11.134,-1.03,-1.01,-3.64,3.92
11.144,0.05,-0.92,-4.02,4.12
11.154,1.15,-1.41,-4.83,5.16
11.164,2.35,-1.70,-6.24,6.88
11.174,4.13,-0.22,-6.73,7.90
11.184,5.51,0.53,-5.57,7.85
11.194,6.37,0.45,-5.75,8.59
11.204,6.82,-0.30,-5.95,9.06
11.214,6.96,-1.78,-5.88,9.28
11.223,7.17,-3.38,-5.62,9.72
11.233,7.80,-4.42,-5.04,10.28
11.244,8.54,-4.88,-4.13,10.67
11.253,9.19,-4.85,-2.85,10.77
11.263,9.54,-4.13,-1.33,10.48
11.273,9.59,-2.96,-0.12,10.03
11.284,9.40,-1.60,0.59,9.55
11.293,8.91,-0.31,0.61,8.94
11.303,7.90,0.22,0.15,7.90
11.313,6.48,0.09,0.05,6.48
11.323,5.09,-0.18,0.15,5.10
11.333,3.83,-0.66,0.48,3.91
11.343,2.50,-0.98,0.72,2.78
11.353,0.88,-0.76,0.43,1.24
11.363,-1.05,0.33,0.03,1.10
11.373,-3.02,2.28,-0.63,3.83
11.383,-4.76,4.58,-2.18,6.96
11.393,-6.08,7.82,-3.53,10.52
11.403,-6.74,10.34,-4.26,13.06
11.413,-6.12,9.75,-5.01,12.55
11.423,-3.88,8.02,-2.36,9.22
11.433,-0.87,5.27,3.06,6.15
11.443,1.52,2.08,5.74,6.30
11.453,3.97,1.64,7.55,8.69
11.463,6.01,2.21,9.70,11.62
11.473,6.55,0.93,10.96,12.80
11.483,5.99,3.88,9.11,11.57
11.493,6.06,5.10,5.36,9.56
11.503,7.54,3.20,2.93,8.70
11.513,7.59,2.80,1.61,8.25
11.523,7.09,1.07,0.03,7.17
11.533,6.63,-0.93,-1.62,6.89
11.543,5.76,-1.78,-3.08,6.77
11.553,4.27,-1.62,-4.61,6.49
11.563,2.25,-0.38,-5.53,5.98
11.573,-0.08,-0.04,-5.40,5.40
11.583,-2.06,-1.05,-3.87,4.51
11.593,-2.61,-2.58,-1.87,4.11
11.603,-1.91,-3.13,0.64,3.72
11.613,-0.97,-2.54,2.96,4.02
11.623,-0.55,-1.23,3.68,3.92
11.633,-0.32,-1.52,3.33,3.68
11.643,0.10,-2.41,2.56,3.52
11.653,0.23,-2.72,1.30,3.02
11.663,-0.23,-3.01,-0.43,3.04
11.673,-0.75,-3.26,-2.22,4.02
11.683,-1.07,-3.33,-3.34,4.84
11.693,-1.14,-2.82,-3.89,4.94
11.703,-0.87,-1.72,-4.12,4.55
11.713,-0.23,-0.29,-3.64,3.66
11.723,0.45,1.96,-2.81,3.45
11.733,0.72,5.91,-1.13,6.06
11.743,0.64,11.10,2.10,11.32
11.753,1.67,14.90,5.13,15.85
11.764,3.03,15.60,5.44,16.80
11.774,2.62,13.07,1.99,13.48
11.783,1.36,7.03,-1.47,7.31
11.793,0.28,3.88,-1.76,4.27
11.803,0.09,1.90,-1.21,2.26
11.812,-0.17,-0.31,-0.17,0.39
11.823,-1.46,-1.50,1.07,2.35
11.833,-2.88,-1.54,1.63,3.65
11.843,-2.93,-1.49,1.40,3.57
11.853,-1.58,-1.83,1.15,2.68
11.863,-0.02,-2.19,1.00,2.40
11.872,0.97,-2.86,0.96,3.17
11.883,1.09,-3.74,0.88,3.99
11.892,0.44,-4.65,0.79,4.74
11.902,-0.46,-5.34,0.78,5.41
11.912,-1.30,-5.81,0.72,6.00
11.922,-1.81,-6.01,0.34,6.28
11.932,-1.81,-5.25,-0.10,5.55
11.942,-1.29,-3.70,-0.31,3.93
11.952,-0.44,-1.32,-0.84,1.63
11.962,0.88,1.51,-1.37,2.22
11.972,2.12,4.19,-1.31,4.88
11.982,2.84,5.95,-1.43,6.75
11.992,3.13,6.56,-1.69,7.46
12.002,2.75,4.73,-1.23,5.60
12.012,1.73,1.55,-0.39,2.35
12.022,0.44,-0.78,0.42,0.99
12.032,-0.63,-2.51,0.92,2.75
12.042,-1.20,-3.35,0.68,3.62
12.052,-1.54,-3.43,0.04,3.76
12.062,-1.84,-3.48,-0.66,3.99
12.072,-1.86,-3.35,-1.36,4.07
12.082,-1.78,-3.21,-1.68,4.04
12.092,-1.94,-3.41,-1.46,4.19
12.102,-2.19,-3.73,-0.96,4.43
12.112,-2.18,-3.80,-0.48,4.41
12.122,-1.88,-3.49,-0.16,3.97
12.132,-1.43,-2.97,-0.32,3.31
12.142,-1.03,-2.44,-0.94,2.81
12.152,-0.81,-1.67,-1.74,2.54
12.162,-0.88,-0.66,-2.02,2.30
12.172,-0.87,0.01,-1.80,2.00
12.182,-0.35,0.32,-1.70,1.76
12.192,0.45,0.29,-1.74,1.82
12.202,1.36,0.18,-1.86,2.31
12.212,2.04,0.06,-1.92,2.80
12.222,2.46,-0.06,-2.07,3.22
12.232,2.94,-0.07,-2.07,3.59
12.242,3.38,0.21,-1.78,3.82
12.252,3.73,0.71,-1.44,4.06
12.262,3.86,1.10,-1.50,4.29
12.272,3.59,1.56,-1.74,4.29
12.282,2.95,2.49,-1.67,4.21
12.292,2.09,3.74,-0.99,4.40
12.302,1.04,5.17,0.01,5.27
12.312,-0.14,6.55,1.33,6.68
12.322,0.24,7.75,2.13,8.04
12.332,1.90,9.29,1.92,9.67
12.342,2.73,10.18,2.84,10.91
12.352,2.13,8.35,3.49,9.30
12.362,0.72,5.24,2.31,5.77
12.372,-1.02,3.11,1.56,3.62
12.382,-2.69,1.63,1.64,3.54
12.392,-3.54,0.51,1.49,3.88
12.402,-3.36,-0.56,0.79,3.50
12.412,-2.32,-2.33,-0.18,3.29
12.422,-0.26,-5.50,-1.34,5.67
12.432,2.76,-7.77,-0.70,8.27
12.442,4.98,-7.68,1.50,9.27
12.451,5.35,-7.18,0.74,8.98
12.462,5.03,-6.13,0.36,7.94
12.471,4.35,-3.37,0.94,5.58
12.482,3.55,0.33,1.62,3.91
12.492,3.12,3.25,1.42,4.73
12.502,2.89,5.11,0.89,5.94
12.512,2.31,5.44,0.77,5.96
12.522,1.47,3.94,1.63,4.51
12.531,-0.13,1.66,2.58,3.07
12.541,-1.89,0.53,3.30,3.84
12.552,-3.16,0.31,4.10,5.19
12.561,-3.88,-0.54,4.27,5.79
12.571,-3.89,-1.61,3.67,5.58
12.582,-3.14,-2.53,3.04,5.05
12.591,-1.87,-3.29,2.64,4.61
12.601,-0.50,-3.85,1.90,4.32
12.611,0.58,-4.46,0.68,4.55
12.621,0.95,-4.60,-0.47,4.73
12.631,0.77,-3.93,-1.03,4.13
12.641,0.53,-2.80,-0.97,3.02
12.651,0.62,-1.80,-0.78,2.06
12.661,0.91,-0.94,-0.43,1.38
12.671,1.12,-0.06,0.11,1.13
12.681,1.13,0.62,0.70,1.46
12.691,1.00,1.34,1.06,1.98
12.701,0.87,2.44,0.81,2.72
12.711,0.55,3.29,0.02,3.34
12.721,0.27,3.12,-0.70,3.20
12.731,0.36,2.70,-1.41,3.06
12.741,0.50,2.43,-2.20,3.32
12.751,0.64,1.76,-2.63,3.23
12.761,0.61,0.84,-2.48,2.69
12.771,0.44,0.11,-1.77,1.82
12.781,0.39,0.09,-0.38,0.56
12.791,0.55,1.17,0.95,1.61
12.801,0.73,3.53,1.95,4.10
12.811,1.05,6.39,1.97,6.77
12.821,1.54,8.05,0.85,8.24
12.831,0.34,8.03,-0.32,8.04
12.841,-3.24,6.51,-0.55,7.29
12.851,-5.83,2.48,-1.07,6.42
12.861,-5.73,-1.95,-1.05,6.15
12.871,-4.61,-3.94,-0.19,6.07
12.881,-3.74,-4.04,0.88,5.57
12.891,-2.83,-3.54,0.90,4.62
12.901,-1.79,-3.60,0.43,4.04
12.911,-1.08,-4.07,0.46,4.24
12.921,-0.87,-4.52,0.73,4.66
12.931,-0.88,-4.64,1.08,4.84
12.941,-0.82,-4.35,1.34,4.63
12.951,-0.48,-3.73,1.32,3.98
12.961,-0.07,-2.91,0.91,3.05
12.971,0.28,-1.76,0.50,1.85
12.981,0.77,-0.33,0.41,0.94
12.991,1.00,1.14,0.33,1.55
13.001,0.66,2.37,-0.05,2.46
13.011,-0.15,3.14,-0.23,3.15
13.021,-1.06,3.61,-0.13,3.76
13.031,-0.95,3.17,-0.43,3.34
13.041,0.10,0.94,-0.43,1.04
13.051,0.96,-1.16,-0.81,1.71
13.061,1.26,-2.82,-1.15,3.30
13.071,1.55,-3.87,-0.95,4.27
13.081,1.82,-4.41,-0.92,4.86
13.091,1.73,-4.53,-1.03,4.96
13.101,1.33,-4.39,-1.16,4.74
13.111,0.70,-4.05,-1.26,4.30
13.120,0.01,-3.33,-1.20,3.54
13.131,-0.42,-2.75,-1.12,3.00
13.141,-0.40,-1.99,-0.94,2.24
13.151,-0.34,-1.17,-0.50,1.31
13.161,-0.46,-0.43,0.18,0.65
13.171,-0.77,-0.21,0.22,0.83
13.181,-1.23,-0.44,-0.43,1.37
13.191,-1.32,-0.50,-0.84,1.65
13.201,-1.19,-0.16,-1.10,1.62
13.211,-1.12,0.22,-1.20,1.65
13.220,-1.02,0.39,-1.20,1.62
13.230,-0.73,-0.06,-1.11,1.33
13.241,-0.31,-0.88,-1.08,1.42
13.250,0.19,-1.68,-1.31,2.14
13.260,0.53,-2.30,-1.69,2.90
13.270,0.57,-2.67,-1.81,3.28
13.280,0.55,-2.61,-1.65,3.14
13.290,0.46,-2.04,-1.38,2.51
13.301,0.47,-1.27,-1.32,1.89
13.310,0.56,-0.32,-1.61,1.73
13.321,0.72,0.80,-2.12,2.38
13.330,0.84,1.88,-2.26,3.05
13.340,1.05,2.70,-1.98,3.51
13.350,1.68,3.55,-1.60,4.25
13.360,2.11,4.29,-1.16,4.92
13.370,1.93,5.10,-0.77,5.50
13.380,1.65,6.04,0.05,6.27
13.390,1.69,7.19,1.18,7.48
13.400,1.93,8.21,2.19,8.71
13.410,2.31,8.76,2.94,9.52
13.420,2.28,8.78,3.28,9.65
13.430,1.85,8.48,2.97,9.17
13.440,1.30,7.95,2.08,8.32
13.450,0.90,7.20,0.78,7.30
13.460,0.62,5.46,-0.42,5.51
13.470,0.24,2.75,-0.52,2.81
13.480,-0.10,0.37,0.32,0.50
13.490,0.28,-0.82,0.54,1.02
13.500,1.29,-1.89,-0.21,2.30
13.510,2.96,-5.73,-2.34,6.86
13.520,4.39,-9.20,-2.03,10.39
13.530,4.56,-9.75,0.05,10.76
13.540,4.21,-8.75,0.24,9.71
13.550,3.62,-8.06,-0.05,8.84
13.560,3.26,-5.80,-1.07,6.74
13.570,2.76,-2.03,-1.33,3.68
13.580,2.44,1.02,-0.33,2.67
13.590,1.81,3.49,0.43,3.95
13.600,0.74,6.38,0.28,6.43
13.610,-0.49,8.47,0.14,8.48
13.620,-2.17,8.70,0.52,8.99
13.630,-3.75,9.04,2.01,9.99
13.640,-4.35,7.10,4.17,9.31
13.650,-4.94,3.08,5.14,7.76
13.660,-5.13,-0.25,4.73,6.98
13.670,-4.36,-2.64,3.79,6.35
13.680,-3.02,-3.22,3.22,5.47
13.690,-1.81,-1.68,2.79,3.72
13.700,-0.27,-1.30,1.41,1.93
13.710,0.98,-1.67,-0.52,2.01
13.720,1.75,-2.60,-2.51,4.02
13.730,1.91,-2.91,-3.78,5.14
13.740,1.89,-2.77,-3.80,5.07
13.750,1.81,-2.56,-2.45,3.98
13.760,1.76,-2.16,-0.36,2.80
13.770,1.74,-1.58,1.38,2.73
13.780,1.56,-1.33,2.65,3.35
13.790,1.31,-1.69,2.69,3.43
13.800,0.77,-2.36,1.90,3.12
13.810,0.21,-2.85,0.87,2.98
13.820,-0.10,-3.13,-0.21,3.14
13.830,-0.33,-3.38,-0.74,3.48
13.840,-0.46,-3.65,-1.22,3.87
13.850,-0.62,-3.79,-1.60,4.16
13.860,-0.76,-3.41,-2.28,4.17
13.870,-1.00,-2.35,-3.19,4.09
13.880,-1.23,-0.85,-3.90,4.18
13.889,-1.12,0.68,-3.13,3.40
13.900,-0.78,2.94,0.14,3.05
13.909,-0.13,6.64,4.87,8.23
13.920,0.94,11.07,6.85,13.05
13.930,3.58,13.73,3.36,14.58
13.940,6.16,14.02,-1.58,15.40
13.951,4.04,13.62,-1.40,14.28
13.959,-1.29,8.64,0.54,8.75
13.969,-3.93,0.19,0.18,3.94
13.979,-5.36,-4.67,-0.18,7.12
13.989,-6.67,-5.79,0.43,8.84
13.999,-6.95,-5.02,0.54,8.59
14.009,-6.02,-4.37,-0.35,7.44
14.019,-4.76,-4.92,-0.76,6.89
14.029,-3.83,-6.06,-0.67,7.20
14.039,-3.16,-6.64,-0.43,7.37
14.049,-2.58,-6.24,0.09,6.75
14.059,-2.01,-5.41,0.72,5.82
14.069,-1.47,-3.85,1.50,4.39
14.079,-0.86,-1.34,2.30,2.79
14.089,0.22,1.26,2.39,2.71
14.099,1.89,3.08,1.06,3.77
14.109,3.66,4.12,-1.05,5.61
14.119,4.56,4.80,-1.89,6.88
14.129,3.63,4.95,-1.03,6.22
14.139,1.80,4.21,-0.31,4.59
14.149,0.73,2.14,-1.17,2.55
14.159,0.03,-0.32,-1.65,1.68
14.169,-0.62,-2.27,-0.98,2.55
14.179,-0.89,-3.28,-0.53,3.44
14.189,-0.04,-3.55,-0.97,3.68
14.199,1.31,-3.73,-1.79,4.34
14.209,1.67,-4.10,-1.89,4.81
14.219,1.00,-4.36,-1.06,4.60
14.229,0.26,-4.45,-0.23,4.46
14.239,-0.16,-4.35,0.12,4.36
14.249,-0.22,-4.10,-0.26,4.11
14.259,-0.06,-3.54,-0.40,3.57
14.269,0.20,-2.83,-0.37,2.86
14.279,0.29,-2.09,-0.63,2.20
14.289,0.08,-1.48,-1.15,1.87
14.299,-0.18,-0.76,-1.83,1.99
14.309,-0.59,-0.02,-2.63,2.70
14.319,-0.84,0.41,-2.89,3.04
14.329,-1.12,0.63,-2.34,2.67
14.339,-1.25,0.30,-1.43,1.92
14.349,-0.86,-0.29,-0.90,1.28
14.359,-0.24,-1.00,-1.04,1.47
14.369,0.32,-1.66,-1.22,2.08
14.379,0.88,-1.87,-1.31,2.45
14.389,1.41,-1.82,-1.68,2.85
14.399,1.86,-1.66,-1.75,3.05
14.409,2.17,-1.51,-1.63,3.10
14.419,2.21,-1.16,-1.49,2.91
14.429,1.91,-0.56,-1.28,2.37
14.439,1.39,0.42,-0.87,1.69
14.449,1.11,1.53,-0.34,1.92
14.459,1.14,2.98,0.07,3.19
14.469,1.24,4.53,0.62,4.74
14.479,1.28,6.31,0.99,6.51
14.489,0.98,8.91,0.73,8.99
14.498,0.34,12.61,0.13,12.61
14.509,-0.67,16.18,-0.07,16.19
14.519,-2.25,16.51,0.85,16.68
14.530,-3.52,12.17,2.15,12.85
14.538,-3.71,6.74,2.50,8.09
14.549,-3.56,2.82,2.05,4.98
14.558,-3.25,0.57,1.37,3.57
14.569,-2.74,-1.06,1.19,3.17
14.579,-1.99,-2.50,1.08,3.37
14.589,-0.83,-4.67,0.57,4.77
14.598,0.42,-7.11,0.44,7.14
14.608,2.56,-9.17,-0.51,9.53
14.619,3.94,-10.15,-0.71,10.91
14.628,4.02,-9.47,-0.50,10.30
14.638,4.24,-8.11,-0.39,9.16
14.648,4.01,-4.69,-0.41,6.19
14.658,3.33,-0.69,-0.77,3.49
14.668,3.02,3.34,0.65,4.55
14.678,3.92,7.57,2.50,8.88
14.688,4.92,10.64,1.96,11.89
14.698,4.26,11.37,0.12,12.14
14.709,2.46,10.87,0.25,11.14
14.718,-0.75,6.44,2.35,6.90
14.728,-3.74,2.50,3.63,5.78
14.738,-5.68,-0.71,4.43,7.24
14.748,-5.95,-3.62,4.13,8.09
14.758,-4.70,-5.49,3.16,7.89
14.768,-3.26,-5.39,2.32,6.71
14.778,-1.94,-4.57,1.11,5.09
14.788,-0.82,-4.40,-0.53,4.50
14.798,-0.32,-4.45,-2.36,5.05
14.808,-0.29,-4.31,-3.77,5.73
14.818,-0.39,-4.34,-3.81,5.78
14.828,-0.40,-4.24,-2.07,4.74
14.838,-0.14,-3.68,0.25,3.69
14.848,0.21,-2.71,2.35,3.59
14.858,0.80,-1.49,3.86,4.22
14.868,1.68,-1.03,3.81,4.29
14.878,2.04,-1.71,2.27,3.50
14.888,1.74,-2.26,0.31,2.87
14.898,1.17,-2.59,-1.07,3.04
14.908,0.58,-2.96,-1.92,3.58
14.918,-0.03,-3.27,-2.41,4.06
14.928,-0.60,-3.42,-2.58,4.32
14.938,-1.07,-3.30,-2.80,4.46
14.948,-1.34,-2.99,-3.07,4.49
14.958,-1.39,-2.46,-2.81,3.99
14.968,-1.29,-1.19,-1.27,2.17
14.978,-1.04,1.57,1.83,2.62
14.988,-0.82,7.06,4.70,8.52
14.998,0.87,14.12,4.45,14.83
15.008,5.01,17.41,1.07,18.14
15.018,6.06,18.19,-0.89,19.20
15.029,1.84,16.72,0.02,16.82
15.038,-1.73,8.04,0.16,8.22
15.048,-2.08,-0.94,-0.86,2.44
15.058,-3.13,-4.36,-0.91,5.44
15.068,-4.38,-4.53,-0.03,6.30
15.078,-4.27,-3.66,0.17,5.62
15.088,-2.68,-3.41,-1.13,4.48
15.098,-0.95,-4.01,-1.82,4.51
15.108,-0.32,-4.94,-1.63,5.21
15.118,-0.25,-5.32,-1.02,5.42
15.128,-0.15,-5.06,-0.20,5.07
15.138,-0.12,-4.46,0.64,4.51
15.148,-0.15,-3.49,1.48,3.79
15.158,-0.15,-2.20,2.19,3.11
15.168,0.19,-0.67,2.50,2.59
15.178,0.80,0.50,2.04,2.25
15.188,1.39,1.34,1.04,2.19
15.198,1.17,1.90,0.38,2.26
15.207,-0.20,2.32,0.44,2.36
15.218,-1.72,2.43,0.67,3.05
15.228,-2.29,1.94,0.58,3.06
15.238,-1.92,0.45,0.42,2.02
15.247,-1.14,-0.99,0.21,1.53
15.258,-0.38,-1.74,0.29,1.81
15.267,0.16,-2.50,0.42,2.54
15.277,0.10,-3.56,0.27,3.57
15.287,0.11,-3.76,-0.47,3.79
15.297,0.19,-3.66,-0.79,3.75
15.307,0.05,-3.57,-0.66,3.63
15.318,-0.34,-3.21,-0.43,3.26
15.327,-0.83,-2.70,-0.28,2.83
15.337,-1.12,-2.01,-0.28,2.32
15.347,-1.18,-1.31,-0.10,1.77
15.358,-1.09,-0.63,0.36,1.31
15.367,-1.02,-0.31,0.58,1.21
15.377,-0.88,-0.52,0.34,1.08
15.387,-0.74,-1.13,0.02,1.35
15.397,-0.73,-1.44,-0.43,1.67
15.407,-0.71,-0.92,-0.85,1.44
15.417,-0.65,-0.10,-1.18,1.35
15.427,-0.68,0.18,-1.23,1.42
15.437,-0.75,-0.01,-1.15,1.37
15.447,-0.68,-0.26,-1.29,1.48
15.457,-0.79,-0.18,-1.50,1.71
15.467,-0.72,-0.19,-2.43,2.54
15.477,-0.42,-0.32,-2.76,2.81
15.487,0.20,-0.66,-2.70,2.79
15.497,1.12,-1.17,-2.31,2.82
15.507,2.09,-1.06,-2.03,3.10
15.517,3.05,-0.68,-1.90,3.65
15.527,3.64,-0.21,-2.04,4.18
15.537,4.05,0.47,-2.08,4.58
15.547,4.39,1.13,-1.87,4.90
15.557,3.90,1.69,-1.65,4.56
15.567,2.64,2.21,-1.06,3.60
15.577,1.64,2.80,-0.14,3.25
15.587,1.35,3.63,0.42,3.89
15.597,1.61,4.17,0.40,4.49
15.607,1.92,4.48,0.48,4.90
15.617,1.85,5.02,0.70,5.40
15.627,1.41,5.77,0.93,6.02
15.637,0.92,6.41,0.93,6.54
15.647,0.43,6.86,0.47,6.89
15.657,-0.14,7.16,-0.37,7.17
15.667,-0.97,7.08,-1.22,7.25
15.677,-1.76,6.44,-1.78,6.91
15.687,-2.24,4.83,-1.99,5.68
15.697,-2.26,2.37,-1.49,3.60
15.707,-1.84,0.20,-0.72,1.98
15.717,-1.34,-1.11,-0.45,1.80
15.727,-0.83,-1.77,0.07,1.96
15.737,-0.42,-2.22,0.35,2.29
15.747,-0.02,-2.99,0.24,3.00
15.757,0.55,-4.89,-0.20,4.93
15.767,1.36,-7.65,-0.87,7.82
15.777,2.57,-9.15,-1.24,9.58
15.787,3.25,-8.68,-0.96,9.32
15.797,2.73,-5.80,-0.45,6.42
15.807,1.77,-1.39,0.32,2.28
15.817,1.40,2.28,0.10,2.68
15.827,1.87,5.26,-0.50,5.61
15.837,2.43,6.49,-0.50,6.95
15.847,1.82,5.14,0.76,5.51
15.857,0.18,3.94,3.32,5.16
15.867,-1.57,4.08,4.07,5.97
15.877,-3.05,3.09,3.56,5.61
15.887,-4.16,1.00,3.33,5.42
15.896,-5.02,-0.98,3.20,6.03
15.907,-5.01,-2.49,3.08,6.39
15.916,-3.98,-3.05,3.23,5.97
15.927,-2.50,-3.56,2.96,5.26
15.937,-0.86,-5.03,2.11,5.52
15.947,0.12,-5.71,1.81,5.99
15.957,0.28,-3.91,1.16,4.08
15.967,0.25,-1.87,-0.44,1.94
15.977,0.65,-1.20,-1.92,2.35
15.986,1.33,-1.22,-2.12,2.78
15.997,1.79,-0.78,-0.78,2.10
16.006,2.01,0.08,1.12,2.31
16.017,1.92,1.03,2.78,3.53
16.026,1.81,0.83,3.52,4.04
16.036,1.47,-0.36,3.48,3.79
16.046,0.74,-1.12,2.66,2.97
16.056,-0.22,-0.25,1.15,1.19
16.066,-0.59,-0.43,-0.11,0.73
16.076,-0.60,-0.41,-1.12,1.33
16.086,-0.54,-0.13,-2.24,2.31
16.096,-0.67,0.08,-2.83,2.91
16.106,-1.04,0.66,-3.23,3.46
16.116,-1.44,1.42,-4.02,4.50
16.126,-1.58,1.81,-4.41,5.02
16.136,-1.90,2.08,-2.83,3.99
16.146,-2.64,3.09,0.32,4.08
16.156,-3.58,5.49,3.07,7.24
16.166,-3.65,8.42,2.81,9.60
16.176,-2.10,9.86,0.19,10.08
16.186,-1.08,10.01,-2.01,10.27
16.197,-2.16,10.10,-1.08,10.38
16.206,-3.13,8.38,-0.15,8.95
16.216,-1.86,1.40,-0.68,2.43
16.226,-1.48,-2.85,-1.27,3.45
16.236,-2.19,-3.71,-1.18,4.47
16.246,-1.90,-4.15,-1.14,4.70
16.256,-0.86,-3.99,-1.10,4.22
16.266,0.29,-3.81,-0.89,3.92
16.276,1.44,-4.18,-0.64,4.47
16.286,2.24,-4.49,-0.22,5.02
16.296,2.55,-4.51,0.20,5.18
16.306,2.54,-4.06,0.53,4.82
16.316,2.54,-3.17,0.87,4.16
16.326,2.66,-2.24,1.23,3.69
16.336,2.77,-1.63,1.37,3.50
16.346,2.76,-0.88,1.09,3.09
16.356,2.34,0.14,0.49,2.40
16.366,1.44,1.49,-0.20,2.08
16.376,0.45,2.91,-0.53,2.99
16.386,-0.82,3.30,-0.32,3.41
16.396,-1.50,1.81,-0.70,2.45
16.406,-1.46,-0.92,-0.52,1.80
16.416,-1.34,-2.62,0.27,2.95
16.426,-0.87,-3.55,0.68,3.72
16.436,-0.26,-4.04,0.52,4.08
16.446,0.05,-4.31,-0.03,4.31
16.456,-0.05,-4.38,-0.63,4.42
16.466,-0.43,-4.41,-0.93,4.53
16.476,-0.87,-4.30,-0.81,4.46
16.486,-1.28,-4.07,-0.53,4.30
16.496,-1.56,-3.60,-0.14,3.93
16.506,-1.67,-2.87,0.44,3.36
16.516,-1.68,-2.03,0.79,2.75
16.526,-1.56,-1.15,0.93,2.15
16.536,-1.29,-0.30,1.04,1.68
16.545,-1.02,0.28,0.67,1.24
16.556,-0.80,0.59,0.07,0.99
16.566,-0.72,0.84,-0.37,1.16
16.576,-0.73,1.43,-0.56,1.70
16.586,-0.88,1.91,-0.64,2.20
16.595,-1.15,1.69,-0.30,2.07
16.605,-1.26,0.75,-0.18,1.48
16.615,-1.12,-0.49,-0.20,1.24
16.625,-0.61,-1.08,-0.70,1.43
16.635,0.08,-0.98,-1.38,1.69
16.645,0.99,-0.81,-2.34,2.67
16.655,1.80,-0.92,-2.86,3.50
16.665,2.47,-1.02,-2.48,3.64
16.675,2.99,-1.25,-1.92,3.77
16.685,3.40,-1.49,-1.61,4.04
16.695,3.59,-1.51,-1.44,4.15
16.705,3.60,-1.16,-1.08,3.93
16.715,3.22,-0.40,-0.69,3.31
16.725,2.66,0.61,-0.38,2.75
16.735,2.16,1.87,-0.01,2.86
16.745,1.95,3.55,0.20,4.06
16.755,1.93,5.59,0.29,5.92
16.765,1.84,7.73,0.63,7.97
16.775,1.53,9.49,1.30,9.70
16.785,0.73,10.22,2.19,10.47
16.795,-0.53,9.89,2.34,10.18
16.806,-1.98,9.19,1.81,9.58
16.815,-3.34,8.34,1.24,9.07
16.825,-4.32,7.03,0.81,8.29
16.835,-4.55,4.63,0.70,6.53
16.845,-4.14,2.01,0.52,4.63
16.855,-3.65,0.13,0.49,3.69
16.865,-2.86,-1.31,0.53,3.19
16.875,-1.78,-3.13,0.25,3.61
16.885,-0.60,-5.54,-0.22,5.57
16.895,0.77,-7.13,-0.60,7.20
16.905,2.59,-7.96,-1.85,8.58
16.915,4.11,-8.41,-2.66,9.73
16.925,4.47,-8.28,-2.06,9.64
16.935,4.78,-8.39,-1.37,9.76
16.945,5.41,-7.69,-1.66,9.54
16.955,5.70,-6.05,-2.26,8.61
16.965,5.64,-2.97,-1.85,6.64
16.975,5.35,1.23,0.19,5.49
16.985,5.12,5.10,1.52,7.38
16.995,4.26,8.08,1.60,9.28
17.005,2.52,9.52,1.67,9.99
17.015,-0.06,8.55,2.79,9.00
17.025,-2.60,9.70,3.46,10.62
17.035,-3.85,8.67,3.79,10.21
17.045,-4.68,4.35,3.51,7.29
17.055,-5.01,1.34,2.68,5.83
17.065,-4.58,-0.75,1.48,4.87
17.075,-3.64,-2.54,0.84,4.51
17.085,-2.55,-3.28,0.88,4.25
17.095,-1.44,-2.99,0.60,3.37
17.105,-0.41,-2.29,-0.45,2.37
17.115,0.40,-1.85,-2.19,2.90
17.125,0.86,-1.75,-3.34,3.86
17.135,0.95,-1.70,-3.07,3.63
17.145,0.78,-1.59,-1.38,2.25
17.155,0.61,-1.19,0.91,1.62
17.164,0.70,-1.05,3.05,3.30
17.175,0.93,-1.25,4.28,4.55
17.185,1.00,-1.45,3.89,4.27
17.195,0.73,-1.68,2.33,2.96
17.204,0.30,-2.66,0.99,2.85
17.215,-0.08,-3.43,0.08,3.44
17.225,-0.48,-3.58,-0.27,3.62
17.235,-0.89,-3.95,-0.80,4.12
17.245,-1.27,-4.20,-1.17,4.55
17.255,-1.39,-4.16,-1.86,4.77
17.265,-1.29,-3.72,-2.17,4.50
17.274,-0.97,-3.40,-1.74,3.94
17.285,-0.56,-3.07,-1.06,3.29
17.294,0.12,-2.90,-0.66,2.98
17.304,0.06,-1.93,0.56,2.01
17.314,-0.01,-1.15,0.52,1.27
17.324,0.90,-0.78,-0.57,1.32
17.334,1.79,0.77,0.01,1.94
17.345,2.13,3.44,1.66,4.37
17.354,2.52,6.27,2.26,7.13
17.364,3.79,7.92,0.75,8.81
17.374,4.50,9.25,0.25,10.29
17.384,2.75,10.37,0.98,10.78
17.395,-1.29,10.32,1.29,10.48
17.404,-4.32,8.37,0.70,9.45
17.414,-5.26,6.43,-0.45,8.32
17.424,-3.84,3.75,-1.71,5.63
17.434,-2.27,-1.37,-1.58,3.09
17.444,-1.83,-1.12,-1.49,2.61
17.454,-1.29,1.04,-0.47,1.72
17.464,-0.57,1.34,0.58,1.57
17.474,0.13,0.32,0.81,0.87
17.484,0.37,-1.10,1.26,1.71
17.494,0.88,-3.08,0.90,3.33
17.504,0.83,-3.69,0.56,3.82
17.514,-0.29,-3.66,0.17,3.68
17.524,-1.29,-4.02,0.74,4.29
17.534,-1.33,-4.35,0.89,4.64
17.544,-1.72,-3.98,-0.60,4.37
17.554,-2.06,-3.59,-0.47,4.17
17.564,-2.31,-2.39,0.64,3.38
17.574,-2.53,-1.02,0.89,2.87
17.584,-2.88,-0.33,0.67,2.97
17.594,-0.86,-1.88,-0.86,2.24
17.604,6.18,-6.04,-2.60,9.02
17.614,2.36,-1.36,2.30,3.57
17.624,-1.40,2.16,1.11,2.81
17.634,-2.51,2.75,-2.11,4.28
17.644,-1.35,0.68,-1.40,2.06
17.654,-0.82,-0.17,0.57,1.01
17.664,-0.67,-0.56,0.52,1.01
17.674,-0.34,-1.07,-0.71,1.33
17.684,0.33,-1.87,-2.20,2.90
17.694,0.52,-2.55,-1.15,2.84
17.704,0.49,-2.34,0.34,2.42
17.714,0.52,-1.91,0.26,1.99
17.724,0.63,-1.38,-0.02,1.52
17.734,0.58,-1.50,-0.34,1.65
17.744,0.62,-1.37,-0.83,1.71
17.754,0.71,-1.01,-1.20,1.72
17.764,0.77,-0.31,-1.32,1.56
17.774,0.56,0.36,-1.22,1.39
17.784,-0.42,-0.29,-1.36,1.46
17.794,-1.29,-1.32,-0.93,2.06
17.804,-0.86,-0.57,-1.09,1.50
17.814,-0.21,0.73,-1.35,1.55
17.824,-0.28,1.12,-1.22,1.68
17.834,-0.83,0.47,-1.25,1.58
17.844,-0.67,-0.14,-1.65,1.78
17.854,-0.17,-0.13,-1.62,1.64
17.864,0.12,-0.33,-1.44,1.48
17.874,0.14,-0.24,-1.08,1.12
17.884,0.25,0.08,-0.89,0.93
17.894,0.47,-0.31,-1.07,1.21
17.904,0.77,-0.67,-0.94,1.39
17.914,1.18,-0.79,-0.77,1.62
17.923,1.17,-0.81,-0.45,1.49
17.934,0.95,-1.03,-0.15,1.41
17.943,1.15,-1.11,-0.82,1.80
17.954,1.20,-0.26,-1.11,1.66
17.963,1.45,0.20,-0.94,1.74
17.974,1.93,0.70,-0.53,2.12
17.983,2.06,1.68,-0.32,2.67
17.994,2.00,2.88,-0.56,3.55
18.004,1.57,4.55,-0.75,4.87
18.014,0.90,6.53,-0.34,6.60
18.023,1.02,7.91,0.24,7.98
18.034,1.59,7.68,0.89,7.89
18.044,2.35,6.18,1.78,6.84
18.054,2.72,4.98,1.81,5.95
18.063,2.41,4.69,1.49,5.48
18.073,1.69,4.75,1.14,5.17
18.083,0.93,4.84,0.80,4.99
18.094,0.03,4.83,0.52,4.86
18.103,-0.62,4.19,-0.09,4.24
18.113,-0.75,2.47,-0.32,2.60
18.123,-1.04,0.34,0.05,1.09
18.133,-1.24,-1.23,0.22,1.77
18.143,-1.16,-2.12,0.41,2.46
18.153,-0.93,-2.82,0.31,2.99
18.163,-0.60,-4.43,-0.50,4.50
18.173,-0.60,-6.46,-1.83,6.74
18.183,-0.21,-6.91,-2.27,7.27
18.193,0.54,-6.04,-2.71,6.64
18.203,0.60,-4.68,-2.09,5.16
18.213,0.20,-3.33,-1.30,3.58
18.223,0.22,-1.64,-0.65,1.78
18.233,0.78,0.58,-0.41,1.05
18.243,2.19,2.78,-0.36,3.56
18.253,1.49,4.13,0.85,4.47
18.263,0.75,4.50,0.70,4.61
18.273,0.93,4.14,3.80,5.70
18.283,0.78,3.35,6.75,7.57
18.293,-0.03,2.93,5.61,6.33
18.303,-1.00,0.96,4.00,4.23
18.313,-1.82,-0.97,3.20,3.81
18.323,-2.20,-1.80,2.49,3.78
18.333,-2.02,-2.12,1.11,3.13
18.343,-2.24,-1.58,-0.03,2.74
18.353,-1.70,-0.83,-0.65,2.00
18.363,-0.83,-0.71,-1.00,1.48
18.373,-0.24,-0.80,-1.89,2.07
18.383,0.24,-1.35,-2.43,2.79
18.393,0.24,-1.78,-1.33,2.24
18.403,0.06,-2.27,0.30,2.29
18.413,-0.32,-2.65,1.83,3.24
18.423,-0.60,-2.42,2.51,3.54
18.433,-0.55,-1.41,2.12,2.61
18.443,-0.13,-0.83,1.62,1.82
18.453,0.48,-1.41,0.74,1.66
18.463,0.48,-1.73,-0.06,1.79
18.473,-0.21,-1.68,-0.63,1.81
18.483,-0.21,-1.71,-1.51,2.30
18.493,-0.32,-0.55,-1.97,2.07
18.503,-0.53,0.16,-2.11,2.18
18.513,-0.55,0.00,-2.44,2.50
18.523,-0.70,0.04,-2.98,3.06
18.533,-0.31,-0.19,-3.38,3.40
18.543,0.35,0.11,-2.44,2.47
18.553,-0.05,3.18,0.24,3.19
18.563,0.59,5.63,2.63,6.25
18.573,1.65,7.81,2.05,8.24
18.583,3.43,9.08,1.42,9.81
18.593,3.55,8.58,1.75,9.45
18.603,0.23,8.04,-0.17,8.05
18.612,-1.63,6.69,-2.33,7.27
18.622,-2.76,4.38,-2.28,5.65
18.632,-3.80,1.60,-1.91,4.55
18.642,-3.82,0.69,-2.15,4.44
18.652,-3.43,-0.06,-1.78,3.86
18.662,-3.13,-1.26,-0.98,3.51
18.672,-2.39,-2.65,-0.31,3.58
18.682,-1.72,-2.93,0.33,3.42
18.693,-1.16,-3.47,0.65,3.71
18.702,-0.97,-4.05,0.94,4.27
18.712,-0.61,-4.30,1.22,4.51
18.722,-0.30,-4.01,1.34,4.23
18.732,-0.10,-3.67,1.55,3.98
18.742,-0.13,-3.11,1.60,3.50
18.752,-0.30,-2.21,1.27,2.57
18.762,-0.62,-1.39,0.78,1.71
18.772,-1.13,-0.56,0.42,1.33
18.782,-1.64,0.03,0.19,1.65
18.792,-1.88,0.38,-0.33,1.94
18.802,-1.59,0.81,-0.72,1.92
18.812,-0.99,1.34,-0.88,1.89
18.822,-0.35,1.52,-1.08,1.89
18.832,0.36,1.73,-1.02,2.04
18.842,0.55,2.09,-1.09,2.42
18.852,0.75,1.46,-0.96,1.90
18.862,0.86,1.12,-0.24,1.44
18.872,0.73,0.27,0.04,0.78
18.882,0.65,-0.72,0.44,1.06
18.892,0.56,-1.41,0.70,1.67
18.902,0.25,-1.13,0.62,1.32
18.912,0.44,-1.14,0.96,1.55
18.922,0.43,-0.85,1.47,1.76
18.932,0.43,-0.42,1.41,1.53
18.942,0.13,-0.47,0.85,0.98
18.952,0.10,-0.64,0.72,0.97
18.962,0.60,0.05,0.72,0.94
18.972,0.89,0.81,-0.01,1.20
18.982,0.91,0.83,-0.37,1.28
18.992,0.95,1.31,-0.63,1.74
19.002,1.16,1.73,-0.10,2.09
19.012,1.29,1.77,-0.36,2.22
19.022,1.20,1.77,-0.58,2.22
19.032,0.96,1.36,-0.76,1.83
19.042,0.85,0.98,-0.76,1.50
19.052,0.80,0.86,-0.54,1.29
19.062,0.84,0.38,-0.43,1.02
19.072,1.28,0.09,-0.35,1.33
19.082,1.76,-0.19,-0.16,1.78
19.092,2.00,0.07,-0.37,2.04
19.102,2.41,-0.02,-1.34,2.76
19.112,2.86,0.55,-2.11,3.60
19.122,3.05,0.79,-2.45,3.99
19.132,3.40,0.98,-2.78,4.49
19.142,3.53,0.73,-2.70,4.50
19.152,2.96,0.61,-1.98,3.62
19.162,2.96,0.93,-0.42,3.13
19.172,4.20,1.35,0.54,4.44
19.182,5.28,1.13,-0.90,5.47
19.192,6.18,0.24,-2.12,6.54
19.201,7.05,-0.28,-1.13,7.15
19.212,7.35,-0.59,-0.98,7.43
19.222,7.60,-1.28,-3.10,8.31
19.232,7.24,-1.35,-5.11,8.97
19.242,6.07,-1.05,-5.73,8.41
19.251,4.35,-0.59,-6.38,7.74
19.262,2.42,-0.51,-6.27,6.75
19.271,0.15,-0.39,-4.88,4.90
19.282,-2.10,-0.53,-3.19,3.86
19.292,-3.83,-0.38,-1.65,4.19
19.301,-4.97,-0.15,-0.12,4.98
19.312,-5.23,0.45,1.81,5.56
19.321,-4.65,1.72,3.59,6.12
19.332,-3.83,2.67,5.00,6.84
19.341,-3.23,3.22,5.94,7.49
19.351,-2.65,4.29,6.26,8.04
19.361,-1.50,4.96,6.36,8.20
19.371,-0.53,4.87,6.67,8.28
19.381,0.36,5.08,6.64,8.37
19.391,0.94,4.66,6.56,8.10
19.401,1.25,4.00,6.42,7.66
19.412,1.15,3.89,6.36,7.54
19.421,1.34,3.77,6.34,7.50
19.431,1.62,2.61,7.04,7.69
19.441,1.54,1.36,7.97,8.23
19.451,1.28,0.68,7.36,7.50
19.461,0.91,0.50,6.10,6.18
19.471,0.76,-0.02,5.37,5.43
19.481,0.67,-0.19,5.22,5.27
19.491,0.70,-0.82,5.86,5.96
19.501,0.79,-1.60,6.22,6.47
19.511,1.20,-1.49,6.04,6.34
19.521,1.70,-0.93,5.33,5.68
19.531,2.24,0.09,4.41,4.95
19.541,2.65,1.81,4.30,5.36
19.551,3.01,2.32,5.34,6.56
19.561,3.46,2.30,6.24,7.50
19.571,4.16,2.43,6.05,7.73
19.581,5.07,2.93,4.80,7.57
19.591,5.79,3.76,3.58,7.78
19.601,6.21,4.48,2.83,8.17
19.611,6.54,4.71,2.35,8.39
19.621,6.57,4.50,2.56,8.37
19.631,6.55,3.67,2.94,8.06
19.641,6.84,3.78,2.42,8.18
19.651,7.42,4.04,1.60,8.60
19.661,7.87,4.18,1.58,9.05
19.671,8.07,4.56,2.58,9.62
19.681,8.07,3.90,3.99,9.81
19.691,8.18,3.67,4.58,10.07
19.701,8.21,3.44,4.24,9.86
19.711,8.14,3.13,3.73,9.48
19.721,8.06,3.16,3.06,9.18
19.731,7.90,3.15,2.37,8.83
19.741,7.53,3.23,2.02,8.44
19.751,7.15,3.14,2.31,8.14
19.761,6.77,2.87,3.15,8.00
19.771,6.44,2.36,3.84,7.86
19.781,6.23,2.10,3.97,7.68
19.791,6.12,1.98,3.09,7.14
19.801,6.20,2.15,1.82,6.81
19.811,6.30,2.53,0.44,6.80
19.821,6.18,2.77,-0.76,6.81
19.831,6.02,2.24,-1.44,6.58
19.841,5.69,1.45,-1.74,6.12
19.851,5.27,0.88,-2.41,5.86
19.861,4.98,0.05,-3.59,6.14
19.871,4.73,-0.51,-4.04,6.24
19.881,4.51,-0.88,-4.03,6.11
19.891,6.16,0.29,-3.09,6.90
19.901,7.95,0.49,-5.79,9.85
19.911,4.68,-0.66,-9.15,10.30
19.921,2.04,-1.29,-9.02,9.34
19.931,1.46,-1.62,-6.34,6.71
19.940,0.58,-1.06,-3.76,3.95
19.951,-0.33,-0.56,-2.66,2.74
19.960,-0.64,-0.67,-2.65,2.81
19.971,-1.02,-0.56,-2.30,2.58
19.980,-1.22,-0.43,-0.48,1.38
19.991,0.52,1.04,6.05,6.16
20.000,0.82,-0.54,-0.05,0.98
20.011,-0.52,-1.27,-1.93,2.37
20.020,-0.12,-0.12,-0.68,0.70
20.031,0.30,0.14,-0.92,0.98
20.040,-0.55,-0.19,-1.53,1.64
20.050,-1.83,-0.76,-1.02,2.23
20.060,-2.79,-0.81,-0.34,2.92
20.070,-3.51,-0.63,0.80,3.66
20.080,-3.75,-0.99,1.87,4.30
20.090,-3.98,-1.77,2.32,4.93
20.100,-3.60,-2.45,3.10,5.34
20.110,-3.65,-2.02,3.27,5.30
20.120,-3.69,-0.98,2.93,4.81
20.130,-2.67,1.12,2.28,3.69
20.140,-1.44,3.25,1.25,3.77
20.150,-1.42,2.60,-0.12,2.97
20.160,-2.78,0.32,-0.63,2.87
20.170,-2.94,-0.34,-0.48,3.00
20.180,-1.79,-0.92,-0.98,2.24
20.190,-0.73,-2.26,-1.44,2.78
20.200,0.17,-3.15,-0.91,3.29
20.210,0.44,-4.05,-0.48,4.10
20.220,-0.22,-4.91,0.42,4.93
20.230,-1.00,-5.67,1.66,5.99
20.240,-1.37,-6.27,2.41,6.86
20.250,-1.63,-6.68,2.72,7.40
20.260,-1.28,-6.72,3.07,7.49
20.270,-0.02,-6.04,3.13,6.80
20.280,1.65,-4.71,3.36,6.02
20.290,2.14,-3.50,3.19,5.20
20.300,1.80,-3.08,2.31,4.25
20.310,1.07,-2.98,1.54,3.52
20.320,0.64,-2.53,0.97,2.78
20.330,0.50,-2.04,0.67,2.21
20.340,0.31,-1.78,0.93,2.03
20.350,0.47,-1.68,1.45,2.27
20.360,0.89,-1.52,2.01,2.68
20.370,0.66,-1.62,2.59,3.13
20.380,0.22,-1.85,3.01,3.54
20.390,-0.05,-2.05,2.81,3.48
20.400,0.06,-2.14,2.42,3.23
20.410,0.38,-2.03,1.54,2.58
20.420,0.45,-1.91,0.73,2.10
20.430,0.53,-1.81,0.60,1.98
20.440,0.44,-1.96,0.80,2.17
20.450,0.03,-2.31,1.54,2.78
20.460,-0.78,-2.30,2.05,3.18
20.470,-1.14,-1.72,2.48,3.23
20.480,-0.85,-0.74,2.44,2.69
20.490,-0.74,-0.34,1.48,1.69
20.500,-1.03,-0.68,0.33,1.28
20.510,-1.08,-0.43,-1.52,1.91
20.520,-0.88,0.12,-2.97,3.10
20.530,-1.09,-0.20,-1.59,1.94
20.540,-1.50,-0.89,-0.09,1.75
20.550,-1.43,-0.83,0.89,1.87
20.560,-1.25,-0.83,1.90,2.42
20.570,-1.51,-0.79,2.44,2.97
20.580,-1.71,-0.30,2.47,3.02
20.590,-1.64,-0.18,2.70,3.16
20.599,-1.24,-0.14,2.31,2.63
20.610,-0.84,0.18,1.14,1.43
20.620,-1.02,-0.15,-0.91,1.37
20.630,-0.79,-0.47,-0.94,1.32
