time,ax,ay,az,atotal
0.000,3.01,2.29,1.93,4.24
0.010,3.90,3.48,-0.92,5.30
0.020,0.36,2.78,0.14,2.81
0.030,-0.62,1.45,0.91,1.82
0.040,-0.40,0.50,0.62,0.89
0.050,-0.27,0.26,0.12,0.40
0.060,0.13,-0.73,-0.92,1.18
0.070,-0.33,-0.69,-1.58,1.76
0.080,-1.20,0.52,-0.90,1.59
0.090,-1.64,0.88,-1.18,2.20
0.100,-1.58,0.32,-1.32,2.08
0.110,-1.23,0.11,-1.01,1.59
0.120,-0.74,0.14,-1.08,1.31
0.130,-0.12,0.39,-0.80,0.89
0.140,0.38,0.17,-0.60,0.73
0.150,0.05,-0.87,-0.89,1.24
0.160,-0.17,-1.74,-1.01,2.02
0.170,-0.24,-1.38,0.70,1.57
0.180,-0.48,-0.76,0.89,1.27
0.190,-0.05,-0.92,-1.17,1.48
0.200,0.35,-0.81,-2.06,2.24
0.210,0.30,-0.37,-2.02,2.08
0.220,-0.83,1.13,-1.37,1.97
0.230,0.16,2.31,1.34,2.67
0.240,0.58,2.08,2.83,3.56
0.250,0.22,1.40,1.87,2.35
0.261,0.40,0.71,1.03,1.32
0.270,0.60,-0.44,0.64,0.98
0.280,0.44,-1.18,0.76,1.47
0.290,0.10,-1.16,1.53,1.93
0.300,0.75,-1.63,2.31,2.93
0.310,0.71,-2.56,2.00,3.33
0.320,0.61,-3.31,2.08,3.95
0.330,0.71,-3.98,2.70,4.86
0.340,0.59,-4.27,3.28,5.42
0.350,0.56,-4.33,3.77,5.77
0.360,0.35,-4.35,3.92,5.86
0.370,-0.15,-4.07,4.27,5.90
0.379,-0.42,-4.65,4.11,6.22
0.390,-0.68,-5.59,3.29,6.52
0.400,0.42,-6.72,3.55,7.61
0.410,0.74,-7.83,3.35,8.55
0.420,-0.74,-6.01,2.33,6.49
0.429,-0.22,-5.08,2.00,5.46
0.439,1.73,-5.56,2.66,6.40
0.450,2.54,-5.60,5.05,7.96
0.460,-3.77,-6.51,6.60,10.01
0.470,-7.54,-6.27,7.93,12.61
0.479,-9.59,-4.48,6.14,12.23
0.490,-10.72,-3.67,5.79,12.73
0.500,-12.44,-4.77,5.92,14.58
0.509,-14.65,-5.30,5.18,16.41
0.520,-16.00,-4.96,3.91,17.20
0.530,-16.50,-4.58,3.26,17.43
0.539,-12.83,-2.18,-25.69,28.80
0.550,-5.76,-0.22,-24.71,25.37
0.559,1.07,-0.94,-22.68,22.72
0.569,7.05,2.33,-3.71,8.30
0.579,10.50,4.71,-1.52,11.61
0.589,-1.41,7.16,-17.59,19.05
0.600,-13.09,6.03,-9.47,17.25
0.609,-4.04,1.55,9.40,10.35
0.619,-3.29,-2.50,6.39,7.61
0.629,-4.93,-0.70,1.66,5.25
0.639,-6.50,4.21,1.42,7.87
0.650,-4.68,8.73,4.34,10.81
0.659,-1.96,8.89,1.40,9.21
0.669,-1.35,6.28,-3.19,7.17
0.679,-1.50,4.25,-6.79,8.15
0.689,-2.08,3.50,-7.73,8.74
0.699,-2.03,3.04,-6.25,7.24
0.709,-1.35,2.38,-4.73,5.46
0.719,-0.34,1.95,-3.80,4.28
0.729,0.78,1.88,-4.37,4.82
0.739,0.68,1.78,-4.82,5.18
0.749,1.01,1.84,-4.22,4.71
0.759,1.64,1.87,-3.09,3.97
0.769,2.06,1.79,-2.06,3.42
0.779,2.41,1.87,-1.28,3.31
0.789,2.76,1.85,-0.87,3.43
0.799,3.44,1.52,-0.68,3.82
0.809,3.74,1.04,-1.75,4.26
0.819,2.96,0.44,-1.85,3.52
0.829,2.78,0.36,-0.81,2.92
0.839,2.58,0.80,-0.68,2.78
0.849,2.19,0.73,-0.48,2.35
0.859,2.07,0.26,-1.01,2.32
0.869,0.95,0.10,-2.09,2.30
0.879,0.28,0.87,-1.66,1.89
0.889,0.59,1.39,-0.12,1.52
0.899,2.23,2.85,2.88,4.62
0.909,1.24,2.78,2.07,3.68
0.919,0.03,1.69,0.98,1.95
0.929,-0.47,1.27,0.28,1.38
0.939,-0.87,1.22,-0.13,1.50
0.949,-1.51,1.24,0.08,1.95
0.959,-0.84,0.78,-0.76,1.38
0.969,-0.31,0.67,-1.94,2.07
0.979,-0.38,0.77,-2.01,2.18
0.989,0.10,0.17,-1.48,1.50
0.999,0.76,-0.10,-0.88,1.17
1.009,1.16,-0.10,-1.11,1.61
1.019,0.92,-0.35,-0.94,1.36
1.029,0.14,-0.44,-1.28,1.36
1.039,-0.51,-0.70,-1.38,1.63
1.048,-0.48,-1.01,-0.64,1.29
1.058,0.01,-0.72,-0.03,0.72
1.069,0.52,0.21,0.56,0.80
1.079,1.00,0.28,1.52,1.84
1.088,0.53,-0.15,0.37,0.67
1.099,0.35,-0.82,-0.18,0.91
1.109,0.62,-1.11,-0.50,1.36
1.119,0.90,-1.31,-0.09,1.59
1.129,0.73,-1.26,0.18,1.47
1.138,0.74,-0.63,-0.01,0.98
1.149,0.05,0.20,0.01,0.20
1.158,-0.66,0.34,0.04,0.74
1.168,-0.62,0.03,0.31,0.69
1.179,-0.28,-0.38,0.41,0.63
1.189,0.32,-0.17,-0.06,0.37
1.199,0.97,-0.26,-0.20,1.03
1.208,1.28,-0.35,0.32,1.36
1.218,1.48,0.06,1.20,1.91
1.228,2.27,-0.18,2.42,3.32
1.238,2.35,-0.74,2.29,3.37
1.249,2.08,0.49,1.45,2.59
1.258,1.38,1.16,-0.13,1.81
1.268,1.67,1.09,-0.09,2.00
1.278,1.74,0.57,-2.11,2.79
1.289,1.47,-0.29,-2.16,2.63
1.298,1.14,-1.92,-1.75,2.84
1.308,0.89,-2.66,-2.48,3.75
1.318,1.55,-1.93,-2.55,3.55
1.328,1.56,-0.01,-2.11,2.63
1.338,0.10,0.30,-1.58,1.62
1.348,-0.19,0.23,-0.16,0.34
1.358,0.16,0.18,0.77,0.80
1.368,-0.33,-0.59,0.95,1.17
1.378,-0.56,-1.46,1.34,2.06
1.388,-1.13,-1.64,2.62,3.29
1.398,-2.75,-1.19,4.03,5.02
1.408,-4.14,-0.57,4.64,6.24
1.418,-4.47,-0.11,4.15,6.10
1.428,-5.15,-0.23,3.44,6.20
1.438,-6.11,0.01,2.76,6.71
1.448,-5.48,1.76,3.11,6.54
1.458,1.19,6.35,5.82,8.70
1.468,4.25,3.41,3.61,6.54
1.478,1.70,-2.53,-1.10,3.24
1.488,-0.54,-4.21,-3.20,5.31
1.498,-0.79,-1.73,-2.04,2.79
1.508,-0.65,1.93,0.86,2.22
1.518,-1.31,2.99,1.49,3.59
1.528,-1.65,2.85,0.31,3.31
1.538,-1.48,1.85,-1.43,2.77
1.548,-1.00,0.89,-1.70,2.17
1.558,-0.95,0.33,-0.94,1.37
1.568,-0.93,-0.32,0.33,1.04
1.578,-0.95,0.09,-0.47,1.06
1.588,-1.13,0.79,-1.88,2.33
1.598,0.28,-0.74,0.83,1.15
1.608,1.71,-1.08,-2.86,3.50
1.618,2.75,-1.28,-5.42,6.21
1.628,1.89,-0.43,-5.02,5.38
1.638,0.33,0.16,-2.47,2.50
1.648,0.04,0.54,-1.54,1.64
1.658,0.62,1.11,-2.46,2.77
1.668,1.05,1.18,-2.52,2.98
1.678,0.62,0.95,-2.06,2.35
1.688,-0.08,0.53,-2.04,2.11
1.698,-0.91,0.48,-2.15,2.39
1.708,-1.66,0.47,-2.31,2.88
1.718,-1.98,0.24,-2.11,2.91
1.728,-1.88,0.51,-1.42,2.41
1.737,-1.64,1.78,-2.96,3.83
1.748,-0.25,2.14,-3.19,3.85
1.757,1.07,1.70,-4.16,4.62
1.768,2.13,0.76,-5.40,5.85
1.778,3.76,0.72,-5.62,6.81
1.787,4.91,1.41,-5.64,7.61
1.798,5.38,1.62,-5.13,7.61
1.808,6.23,1.34,-4.20,7.63
1.818,7.22,1.55,-3.46,8.16
1.828,7.87,1.71,-2.77,8.51
1.838,8.47,2.09,-1.74,8.89
1.847,8.46,2.69,-0.90,8.92
1.858,7.29,3.11,0.44,7.94
1.867,6.55,3.27,1.25,7.43
1.877,6.17,3.72,2.09,7.50
1.887,6.16,3.40,2.87,7.60
1.897,5.96,3.35,2.99,7.46
1.907,5.97,3.17,3.29,7.52
1.917,5.55,3.19,3.49,7.29
1.927,4.70,3.67,3.72,7.03
1.937,2.83,4.46,4.26,6.78
1.947,0.36,5.24,4.60,6.98
1.957,-1.37,5.75,4.70,7.55
1.967,-2.67,6.02,4.59,8.03
1.977,-3.90,5.85,4.20,8.19
1.987,-4.98,5.70,3.64,8.40
1.997,-5.94,5.54,2.42,8.47
2.007,-6.94,5.10,0.88,8.65
2.017,-7.74,4.83,-0.05,9.12
2.027,-8.35,4.38,-0.78,9.46
2.037,-9.18,4.05,-1.71,10.17
2.047,-9.74,3.66,-2.78,10.77
2.057,-9.73,3.39,-3.21,10.79
2.067,-9.54,3.21,-3.74,10.74
2.077,-9.20,2.87,-4.23,10.53
2.087,-8.67,2.32,-4.53,10.05
2.097,-8.08,1.50,-5.08,9.66
2.107,-7.18,0.82,-5.41,9.03
2.117,-6.09,0.44,-5.40,8.15
2.127,-4.96,0.12,-5.57,7.46
2.137,-3.81,-0.12,-5.51,6.70
2.147,-2.75,-0.15,-5.45,6.11
2.157,-1.82,-0.19,-5.27,5.58
2.167,-0.93,-0.27,-5.25,5.34
2.177,-0.15,-0.24,-4.81,4.82
2.187,0.64,-1.13,-3.45,3.68
2.197,0.94,-1.04,-3.39,3.67
2.207,1.20,-1.38,-2.75,3.30
2.217,1.37,-1.56,-2.33,3.12
2.227,1.80,-1.76,-1.81,3.10
2.237,2.07,-1.72,-1.56,3.11
2.247,2.19,-0.79,-1.68,2.87
2.257,1.81,1.05,-1.99,2.89
2.267,1.43,3.47,-1.84,4.18
2.277,1.63,5.20,-1.27,5.59
2.287,2.06,5.74,-0.69,6.14
2.297,2.35,4.62,-0.20,5.19
2.307,2.67,1.76,0.98,3.34
2.317,2.75,0.61,1.30,3.10
2.327,2.61,0.89,0.42,2.79
2.337,2.69,-0.16,-0.49,2.73
2.347,3.03,-0.06,-1.03,3.20
2.357,3.44,0.76,-1.39,3.78
2.367,3.89,0.27,-1.51,4.19
2.377,4.08,-1.40,-0.98,4.42
2.387,3.39,-0.17,-2.07,3.98
2.397,3.19,0.79,-2.11,3.90
2.407,3.13,0.96,-1.46,3.58
2.417,2.83,1.06,-0.94,3.16
2.427,2.50,1.19,-0.68,2.85
2.437,2.30,1.08,-0.68,2.63
2.447,2.06,1.06,-0.69,2.41
2.457,1.80,1.00,-0.53,2.13
2.467,1.53,0.81,-0.46,1.79
2.477,1.38,0.36,-0.03,1.42
2.487,1.17,0.05,0.28,1.21
2.497,0.89,-0.15,0.24,0.94
2.506,0.68,-0.51,0.16,0.87
2.516,0.43,-0.87,0.06,0.97
2.527,0.04,-1.11,0.21,1.13
2.536,-0.29,-1.36,0.27,1.41
2.546,-0.45,-1.59,0.35,1.69
2.556,-0.51,-1.63,0.72,1.85
2.566,-0.41,-1.42,1.14,1.87
2.576,0.05,-0.61,1.78,1.88
2.586,0.59,-0.13,2.51,2.59
2.596,0.89,-0.50,2.75,2.93
2.606,0.85,-1.46,2.53,3.04
2.616,0.58,-1.91,2.43,3.14
2.626,0.68,-2.26,1.50,2.80
2.636,1.02,-2.37,0.51,2.63
2.647,1.12,-2.26,0.22,2.53
2.656,0.81,-2.30,0.29,2.46
2.666,0.58,-1.80,0.61,1.98
2.676,0.47,-1.23,1.01,1.66
2.686,0.43,-1.21,1.05,1.66
2.696,0.22,-1.11,0.90,1.44
2.706,-0.27,-0.81,0.80,1.17
2.716,-0.70,-0.41,0.67,1.05
2.726,-1.21,-0.14,0.60,1.36
2.736,-1.44,0.28,0.67,1.61
2.746,-1.36,0.50,0.61,1.57
2.756,-1.22,0.53,0.45,1.40
2.766,-1.08,0.21,0.08,1.10
2.776,-0.71,-0.16,-0.45,0.86
2.786,-0.13,-0.52,-0.93,1.07
2.796,0.38,-0.44,-1.26,1.38
2.806,0.31,0.02,-1.41,1.44
2.816,-0.26,0.39,-1.38,1.46
2.826,-0.44,0.63,-0.92,1.20
2.836,-0.41,0.52,-0.56,0.87
2.846,-0.21,0.74,-0.36,0.85
2.856,-0.08,1.24,-0.09,1.24
2.866,-0.18,1.62,-0.21,1.65
2.876,-0.81,1.76,-0.49,2.00
2.886,-1.12,1.23,-0.60,1.77
2.896,-0.84,0.49,-0.75,1.23
2.906,-0.30,-0.38,-0.71,0.86
2.916,0.32,-0.63,-1.34,1.51
2.926,0.96,0.23,-1.33,1.66
2.936,1.31,1.19,-1.34,2.22
2.946,1.07,1.45,-1.47,2.33
2.956,0.31,0.67,-1.56,1.73
2.966,-0.58,-0.01,-1.22,1.35
2.976,-1.37,0.08,-1.18,1.81
2.986,-1.91,0.44,-1.81,2.66
2.996,-1.95,0.28,-2.52,3.20
3.006,-1.88,0.38,-2.60,3.23
3.016,-1.51,1.10,-2.30,2.96
3.026,-1.00,2.07,-1.52,2.76
3.036,-0.87,2.05,-0.89,2.40
3.046,-0.05,1.78,-0.02,1.78
3.056,1.36,2.35,1.02,2.89
3.066,2.82,3.04,1.77,4.51
3.076,3.70,2.12,2.06,4.73
3.086,4.25,1.57,0.80,4.60
3.096,5.06,0.84,0.12,5.13
3.106,4.71,-1.05,0.18,4.83
3.116,3.59,-2.38,-0.29,4.32
3.126,4.12,-2.14,-0.34,4.65
3.136,5.14,-2.31,-0.30,5.64
3.146,5.65,-3.02,-0.04,6.41
3.156,4.91,-2.92,-1.41,5.88
3.165,3.33,-2.00,-1.09,4.04
3.176,1.48,-1.60,0.07,2.19
3.186,-0.56,-1.49,-0.77,1.77
3.195,-2.16,-1.23,-0.46,2.53
3.206,-3.76,-1.12,0.19,3.93
3.215,-4.80,-0.10,-0.45,4.82
3.226,-4.74,1.09,-0.80,4.93
3.235,-2.93,-0.52,0.09,2.98
3.246,-1.15,-2.28,1.07,2.77
3.255,-0.05,-2.39,1.19,2.68
3.265,0.33,-2.52,1.44,2.92
3.275,0.51,-2.24,0.88,2.46
3.285,-0.21,-1.18,-0.49,1.29
3.295,-0.80,0.56,-1.06,1.44
3.305,-0.78,3.14,-1.00,3.39
3.315,-1.16,5.08,-1.22,5.35
3.325,-1.95,6.08,-1.16,6.49
3.335,-2.18,6.18,-0.94,6.62
3.345,-1.26,5.65,-1.00,5.88
3.355,-0.81,4.32,-0.79,4.46
3.365,-1.86,2.18,-0.62,2.93
3.375,-4.32,0.90,-0.82,4.49
3.385,-5.83,0.45,-2.98,6.57
3.395,-5.46,-1.31,-5.42,7.81
3.405,-5.46,-2.78,-3.36,6.99
3.415,-5.00,-3.67,1.37,6.35
3.425,-4.09,-4.99,3.64,7.41
3.435,-3.82,-5.62,3.52,7.65
3.445,-2.23,-3.71,7.18,8.39
3.455,6.86,4.64,12.55,15.03
3.465,12.36,3.45,-9.56,16.00
3.475,9.77,-2.83,-6.23,11.93
3.485,4.80,-3.76,3.28,6.92
3.495,2.97,-0.74,2.82,4.16
3.505,1.20,0.63,2.23,2.61
3.515,-0.41,0.34,1.37,1.47
3.525,-0.89,-0.14,0.17,0.92
3.535,-1.08,-0.76,-0.77,1.53
3.545,-1.15,-1.28,-0.80,1.90
3.555,-0.71,-1.51,-0.54,1.76
3.565,-0.11,-1.52,-0.16,1.53
3.575,-0.00,-1.27,0.30,1.30
3.585,0.22,-0.84,0.32,0.93
3.595,0.56,-0.38,0.32,0.75
3.605,0.37,0.28,0.65,0.80
3.615,-0.27,0.91,0.78,1.23
3.625,-0.59,1.10,0.33,1.29
3.635,-1.04,0.78,-0.06,1.30
3.645,-3.60,-2.75,-3.08,5.47
3.655,-1.42,-4.47,-3.17,5.66
3.665,0.41,-3.35,0.20,3.38
3.675,-0.43,-2.64,0.09,2.67
3.685,0.92,-2.46,-0.05,2.62
3.695,0.83,-2.04,0.14,2.21
3.705,0.92,-1.74,0.57,2.05
3.715,0.73,-1.63,0.36,1.82
3.725,1.24,-2.35,-0.48,2.70
3.735,1.30,-3.03,-1.13,3.49
3.745,1.90,-3.23,-1.31,3.96
3.755,2.53,-2.76,-0.70,3.81
3.765,1.41,-0.96,-0.67,1.83
3.774,-0.14,1.35,-0.20,1.38
3.785,-1.14,1.12,1.37,2.10
3.795,-1.36,2.26,1.67,3.12
3.805,-0.54,3.31,1.76,3.79
3.814,0.38,0.66,1.31,1.52
3.825,0.96,-9.05,1.05,9.16
3.835,2.63,-6.30,-1.35,6.96
3.845,3.71,0.23,-2.60,4.53
3.854,2.03,5.44,-3.22,6.64
3.865,0.47,6.72,-1.23,6.85
3.874,1.32,4.88,0.88,5.13
3.885,2.44,2.31,0.69,3.43
3.894,2.85,1.02,-0.75,3.12
3.904,3.39,0.95,-1.78,3.95
3.914,3.64,1.44,-2.18,4.48
3.925,3.30,1.81,-1.52,4.06
3.934,2.15,2.02,-0.90,3.08
3.945,0.92,2.39,-0.24,2.58
3.954,-0.11,3.43,0.25,3.44
3.964,-1.56,4.14,0.43,4.45
3.974,-1.93,3.94,1.01,4.50
3.984,-2.90,4.20,0.80,5.17
3.994,-2.97,2.18,0.38,3.71
4.004,-5.32,0.44,-1.37,5.51
4.014,-8.87,-1.43,-3.14,9.52
4.024,-4.54,-1.85,-1.02,5.00
4.034,-0.67,-1.26,0.67,1.58
4.044,1.73,-1.76,1.72,3.01
4.054,2.87,-2.07,1.12,3.71
4.064,2.05,-0.95,0.42,2.30
4.075,0.49,0.46,-0.21,0.71
4.084,0.26,0.23,-0.52,0.63
4.094,0.28,0.46,-0.72,0.89
4.104,0.31,0.61,-0.75,1.01
4.114,0.42,0.61,-0.73,1.04
4.124,0.58,0.43,-0.79,1.07
4.134,0.66,0.10,-0.76,1.01
4.144,0.50,-0.22,-0.77,0.95
4.154,0.10,-0.50,-0.92,1.05
4.164,-0.31,-0.78,-0.97,1.28
4.174,-0.32,-1.00,-1.25,1.63
4.184,-0.13,-1.17,-1.63,2.01
4.194,-0.01,-1.27,-1.82,2.22
4.204,-0.04,-1.33,-1.87,2.30
4.214,-0.16,-1.39,-1.84,2.32
4.224,-0.34,-1.31,-1.24,1.84
4.234,-0.50,-0.89,-0.51,1.14
4.244,-0.67,-0.32,0.06,0.74
4.254,-0.82,0.27,0.51,1.00
4.264,-0.92,0.81,0.91,1.52
4.274,-0.93,1.28,1.24,2.01
4.284,-0.87,1.54,1.47,2.30
4.294,-0.65,1.52,1.42,2.18
4.304,-0.29,1.24,1.17,1.73
4.314,0.11,0.81,0.77,1.12
4.324,0.47,0.42,0.28,0.69
4.334,0.96,0.31,-0.33,1.06
4.344,1.22,0.26,-0.89,1.53
4.354,1.19,-0.01,-1.10,1.62
4.364,1.00,-0.27,-0.70,1.25
4.374,0.57,-0.22,-0.34,0.70
4.384,0.30,-0.24,-0.22,0.44
4.394,0.31,-0.26,-0.16,0.44
4.404,0.36,-0.28,-0.36,0.58
4.413,0.41,-0.50,-0.60,0.88
4.424,0.44,-0.39,-0.70,0.91
4.434,0.32,0.01,-0.74,0.81
4.444,0.11,0.46,-1.05,1.15
4.454,-0.15,0.85,-1.35,1.60
4.464,-0.21,1.18,-1.71,2.09
4.474,-0.15,1.40,-1.97,2.42
4.484,0.06,1.56,-2.08,2.60
4.494,0.40,1.93,-2.32,3.04
4.503,0.82,2.08,-2.40,3.28
4.514,0.96,1.18,-2.60,3.01
4.524,0.90,-0.38,-2.55,2.73
4.534,0.89,-1.21,-2.29,2.74
4.544,0.76,-1.52,-1.99,2.62
4.554,0.52,-1.74,-1.79,2.55
4.564,0.27,-1.73,-1.81,2.52
4.574,-0.01,-1.61,-1.89,2.48
4.583,-0.10,-1.35,-1.94,2.36
4.593,0.09,-1.10,-2.01,2.30
4.604,0.44,-0.92,-2.08,2.32
4.614,0.81,-0.76,-2.15,2.42
4.623,1.08,-0.65,-2.40,2.71
4.634,1.24,-0.60,-2.70,3.03
4.643,1.46,-0.75,-2.95,3.37
4.654,1.51,-1.06,-2.96,3.49
4.663,1.35,-1.37,-2.95,3.52
4.673,0.90,-1.72,-3.09,3.65
4.683,0.32,-2.07,-3.28,3.89
4.693,-0.26,-2.22,-3.35,4.03
4.703,-0.64,-2.23,-3.23,3.98
4.713,-0.80,-2.09,-3.11,3.83
4.723,-0.75,-1.80,-2.82,3.43
4.733,-0.57,-1.37,-2.20,2.65
4.743,-0.39,-0.82,-1.62,1.86
4.753,-0.18,-0.31,-1.31,1.36
4.763,-0.03,0.07,-1.10,1.11
4.773,0.10,0.45,-0.89,1.00
4.783,0.11,1.00,-0.30,1.05
4.793,0.35,1.89,-0.80,2.08
4.803,0.52,3.17,-1.63,3.60
4.813,0.40,5.13,-2.38,5.67
4.823,-0.23,6.95,-2.20,7.29
4.833,-1.61,7.86,-0.28,8.03
4.843,-3.81,9.10,1.54,9.98
4.853,-5.15,8.20,3.12,10.17
4.863,-4.73,3.89,4.24,7.45
4.873,-2.92,-2.76,4.26,5.86
4.883,-0.83,-6.90,5.20,8.68
4.893,0.23,-6.44,4.20,7.70
4.903,-0.07,-4.54,1.95,4.94
4.913,-0.21,-2.87,1.08,3.07
4.923,-0.26,-1.49,1.34,2.02
4.933,0.81,-0.38,1.30,1.58
4.943,1.55,1.65,1.42,2.67
4.953,2.28,3.49,2.67,4.96
4.963,4.10,5.04,3.69,7.47
4.973,6.12,6.68,3.98,9.89
4.983,6.66,6.33,3.83,9.96
4.993,5.19,4.48,3.45,7.68
5.003,3.17,2.62,2.95,5.06
5.013,1.42,0.76,2.09,2.64
5.023,0.04,-0.87,1.12,1.42
5.033,-0.88,-2.00,0.21,2.20
5.043,-1.52,-2.92,-0.78,3.38
5.053,-1.83,-3.52,-1.69,4.31
5.063,-1.68,-3.68,-2.37,4.68
5.073,-1.23,-3.49,-2.83,4.66
5.083,-0.92,-2.44,-2.77,3.81
5.093,-0.47,-1.35,-1.78,2.28
5.103,0.18,-1.08,-0.23,1.11
5.113,0.71,-0.68,1.42,1.72
5.123,0.76,0.23,2.33,2.46
5.133,0.54,0.90,2.30,2.53
5.143,0.73,0.90,1.82,2.16
5.153,1.25,1.34,0.91,2.04
5.163,1.86,1.51,-0.53,2.46
5.173,1.87,0.92,-1.91,2.83
5.183,1.22,0.31,-2.69,2.97
5.193,0.39,0.10,-2.88,2.91
5.203,-0.37,0.23,-2.64,2.67
5.213,-0.92,0.59,-2.05,2.32
5.223,-1.28,1.13,-1.17,2.07
5.232,-1.49,1.80,-0.28,2.35
5.243,-1.46,2.62,0.37,3.02
5.253,-1.23,3.68,0.64,3.93
5.262,-0.76,4.87,1.11,5.05
5.272,-0.36,6.37,2.00,6.69
5.283,-0.53,8.24,2.58,8.66
5.293,-0.54,9.44,0.64,9.48
5.303,0.34,8.53,-2.17,8.81
5.312,-0.15,6.80,-2.30,7.18
5.323,-2.64,4.75,-0.66,5.47
5.332,-4.44,1.39,0.38,4.67
5.342,-3.58,-1.51,0.99,4.01
5.352,-2.17,-2.73,1.33,3.73
5.362,-1.75,-3.36,1.27,4.00
5.373,-1.63,-3.54,1.44,4.15
5.382,-1.23,-3.59,1.56,4.10
5.392,-0.65,-4.04,1.42,4.34
5.402,-0.19,-4.33,1.29,4.52
5.412,0.36,-4.26,1.35,4.48
5.422,0.94,-4.12,1.49,4.48
5.432,1.29,-3.71,1.68,4.27
5.442,1.41,-3.11,1.75,3.84
5.452,1.17,-2.61,1.61,3.28
5.462,0.50,-1.97,1.27,2.40
5.472,-0.46,-0.82,0.55,1.09
5.482,-1.64,0.92,-0.15,1.88
5.492,-2.61,2.60,-0.48,3.71
5.502,-2.97,3.65,-0.76,4.77
5.512,-2.50,2.86,-0.81,3.88
5.522,-1.54,0.15,-0.40,1.60
5.532,-1.00,-1.01,0.18,1.44
5.542,-0.42,-1.23,0.51,1.40
5.552,0.18,-1.41,0.41,1.48
5.562,0.57,-1.64,0.05,1.74
5.572,0.70,-1.58,-0.30,1.75
5.582,0.68,-1.36,-0.30,1.55
5.592,0.55,-1.30,-0.27,1.43
5.602,0.24,-1.20,-0.16,1.23
5.612,-0.31,-0.76,0.07,0.83
5.622,-1.08,-0.43,0.27,1.20
5.632,-1.68,0.04,0.37,1.72
5.642,-2.02,-0.29,0.21,2.05
5.652,-1.94,-0.43,-0.08,1.99
5.662,-1.69,-1.10,-0.59,2.10
5.672,-1.35,-1.69,-1.00,2.38
5.682,-0.98,-1.79,-1.13,2.33
5.692,-0.99,-1.56,-1.19,2.20
5.702,-1.03,-1.41,-1.25,2.15
5.712,-1.23,-1.47,-1.50,2.44
5.722,-1.32,-1.47,-1.91,2.75
5.732,-1.11,-1.35,-2.04,2.68
5.742,-0.78,-1.47,-1.69,2.37
5.752,-0.41,-1.75,-1.22,2.17
5.762,0.03,-1.49,-0.74,1.66
5.772,0.51,-1.13,-0.51,1.34
5.782,1.01,-0.48,-0.61,1.28
5.792,1.43,0.64,-0.48,1.64
5.802,1.67,1.81,-0.38,2.49
5.812,1.96,2.70,-0.44,3.36
5.822,2.19,3.92,-0.53,4.51
5.831,2.20,4.57,-0.43,5.09
5.842,1.47,5.07,-0.17,5.28
5.852,0.46,6.13,0.18,6.15
5.862,-0.76,6.05,0.69,6.14
5.872,-1.28,6.37,1.61,6.70
5.882,-0.37,7.54,2.20,7.86
5.892,0.28,7.86,1.97,8.11
5.902,0.66,7.33,1.10,7.44
5.912,0.90,5.82,0.27,5.90
5.922,0.65,3.65,-0.11,3.71
5.931,0.07,1.65,-0.52,1.73
5.942,-0.40,0.13,-1.07,1.15
5.952,-0.05,-2.20,-1.82,2.86
5.962,1.58,-5.81,-2.14,6.39
5.971,3.17,-6.13,-0.72,6.94
5.981,3.94,-6.52,-0.64,7.65
5.991,4.15,-7.98,-0.60,9.01
6.001,4.15,-9.29,-1.40,10.27
6.011,4.24,-9.24,-1.67,10.30
6.021,3.96,-6.51,-2.02,7.88
6.031,3.88,-5.34,-2.93,7.22
6.041,3.36,-3.56,-2.37,5.44
6.051,2.15,-0.33,-1.03,2.40
6.061,1.08,3.15,0.22,3.34
6.071,0.66,7.39,1.28,7.53
6.081,1.02,9.64,1.68,9.83
6.091,-0.63,9.93,2.82,10.34
6.102,-1.68,9.83,4.11,10.79
6.111,-0.98,6.80,5.55,8.83
6.121,-1.56,2.63,6.07,6.80
6.131,-2.75,-0.31,5.35,6.03
6.141,-3.14,-2.30,3.95,5.55
6.151,-2.66,-3.24,2.10,4.68
6.161,-1.83,-3.02,-0.10,3.53
6.171,-0.96,-2.10,-2.38,3.32
6.181,-0.39,-0.99,-4.23,4.37
6.191,-0.21,0.52,-5.92,5.94
6.201,-0.14,1.68,-5.13,5.40
6.211,-0.09,2.15,-2.67,3.43
6.221,-0.29,2.26,-0.86,2.44
6.231,-0.60,2.33,0.60,2.48
6.241,-1.05,2.94,1.43,3.44
6.251,-1.29,3.40,1.12,3.81
6.261,-0.99,3.09,-0.17,3.25
6.271,-0.34,2.34,-1.56,2.84
6.281,0.37,1.41,-2.67,3.04
6.291,0.92,0.31,-3.50,3.63
6.301,1.28,-0.67,-4.47,4.69
6.311,1.37,-1.23,-5.10,5.42
6.321,1.39,-1.58,-4.72,5.17
6.331,1.73,-1.86,-3.58,4.39
6.341,2.62,-1.94,-0.77,3.35
6.351,3.88,-1.77,2.96,5.19
6.361,4.92,-1.23,4.46,6.75
6.371,4.36,-0.25,4.39,6.19
6.381,1.25,1.64,3.22,3.82
6.391,-2.75,3.32,1.28,4.49
6.401,-6.00,4.76,0.88,7.71
6.411,-7.16,5.47,1.37,9.11
6.421,-5.75,2.34,0.47,6.23
6.431,-3.40,-4.24,-0.04,5.43
6.441,-3.01,-6.32,0.83,7.05
6.451,-3.24,-5.67,1.49,6.70
6.461,-3.01,-5.34,1.66,6.35
6.470,-2.49,-5.33,1.47,6.06
6.481,-2.03,-4.99,1.12,5.50
6.491,-1.78,-4.18,0.77,4.60
6.501,-1.37,-3.30,0.34,3.59
6.511,-0.77,-2.87,-0.01,2.97
6.521,-0.18,-2.67,-0.23,2.69
6.531,0.43,-1.93,-0.36,2.01
6.540,1.05,-0.40,-0.43,1.20
6.550,1.39,1.70,-0.23,2.21
6.561,1.28,3.30,0.06,3.54
6.571,0.94,4.19,0.52,4.33
6.581,1.03,3.48,0.64,3.69
6.591,1.69,0.62,0.05,1.80
6.600,1.86,-1.78,-0.58,2.64
6.611,1.63,-3.42,-1.07,3.93
6.621,1.40,-3.97,-1.49,4.46
6.630,0.93,-4.10,-1.52,4.47
6.641,0.40,-3.90,-1.35,4.14
6.650,0.01,-3.56,-1.27,3.78
6.660,-0.31,-3.15,-1.27,3.42
6.670,-0.68,-2.49,-1.13,2.82
6.680,-1.23,-1.72,-0.73,2.23
6.691,-1.83,-0.89,-0.48,2.09
6.700,-2.04,-0.21,-0.72,2.18
6.710,-1.76,0.12,-1.15,2.11
6.720,-1.25,0.34,-1.34,1.86
6.730,-0.80,0.54,-1.43,1.72
6.741,-0.57,0.80,-1.74,1.99
6.750,-0.27,0.28,-2.18,2.21
6.760,0.11,-0.36,-2.48,2.51
6.771,0.54,-0.61,-2.77,2.88
6.780,0.80,-0.32,-3.20,3.31
6.791,0.79,0.20,-3.55,3.64
6.800,0.41,0.59,-3.17,3.25
6.810,-0.18,0.63,-2.71,2.79
6.820,-0.70,0.71,-2.36,2.56
6.830,-0.88,1.93,-2.09,2.98
6.840,-0.81,3.60,-1.98,4.19
6.850,-0.62,5.02,-2.05,5.46
6.860,-0.63,5.53,-1.95,5.90
6.870,-0.72,5.29,-1.25,5.49
6.880,-0.57,5.20,-0.15,5.23
6.890,-0.08,5.47,1.00,5.56
6.900,0.99,5.53,1.60,5.84
6.910,2.02,5.35,1.78,5.99
6.920,1.89,4.46,2.39,5.40
6.930,1.17,3.23,2.62,4.32
6.940,0.75,2.11,2.23,3.16
6.950,0.50,0.93,1.98,2.25
6.960,1.22,-0.93,1.84,2.39
6.970,4.29,-3.83,-0.10,5.75
6.980,3.67,-4.49,-0.25,5.81
6.990,3.04,-4.76,-0.29,5.65
7.000,3.11,-4.88,0.05,5.79
7.010,3.30,-5.06,-0.33,6.04
7.020,3.22,-3.94,-0.70,5.14
7.030,2.91,-1.82,-0.50,3.46
7.040,1.74,2.73,0.66,3.30
7.050,0.60,9.10,1.35,9.22
7.060,-0.14,12.71,0.20,12.72
7.071,-1.37,11.15,-0.18,11.23
7.080,-2.37,5.71,1.01,6.26
7.090,-3.68,1.89,2.17,4.67
7.100,-5.20,-0.14,3.12,6.07
7.110,-6.36,-1.61,4.00,7.68
7.120,-6.77,-2.93,4.42,8.60
7.130,-5.81,-4.57,4.33,8.57
7.140,-3.76,-5.76,3.53,7.73
7.150,-1.48,-6.13,2.32,6.72
7.160,0.01,-5.05,1.13,5.17
7.170,0.86,-4.04,-0.34,4.14
7.180,1.44,-4.16,-1.92,4.80
7.190,1.55,-4.27,-2.76,5.32
7.200,1.51,-4.20,-1.84,4.82
7.210,1.49,-3.77,-0.46,4.08
7.220,1.60,-3.32,0.92,3.80
7.229,1.84,-3.14,2.28,4.29
7.240,2.16,-2.92,2.99,4.71
7.250,2.10,-2.33,2.92,4.29
7.260,1.89,-2.05,2.28,3.60
7.270,1.93,-2.18,1.29,3.19
7.279,1.67,-2.07,-0.24,2.67
7.289,1.33,-1.99,-2.05,3.15
7.300,0.82,-2.03,-3.47,4.10
7.309,-0.18,-1.54,-4.18,4.45
7.320,-1.23,-0.33,-4.19,4.38
7.329,-1.98,0.85,-3.60,4.20
7.339,-2.30,1.76,-2.59,3.89
7.349,-2.28,2.87,-1.78,4.07
7.360,-1.97,4.49,-0.66,4.95
7.369,-1.47,7.52,0.91,7.71
7.380,-0.62,10.43,2.37,10.71
7.389,0.22,11.29,1.35,11.37
7.400,-0.09,10.66,-1.12,10.72
7.410,-1.18,10.75,-1.71,10.95
7.420,-4.13,10.76,-0.07,11.53
7.429,-6.47,8.42,1.29,10.69
7.439,-4.70,2.82,1.41,5.66
7.449,-2.52,0.06,0.78,2.64
7.459,-1.34,-1.01,0.30,1.71
7.469,-0.41,-2.25,0.49,2.34
7.479,0.13,-3.18,0.79,3.28
7.489,0.41,-4.10,0.68,4.17
7.499,0.69,-5.16,0.61,5.25
7.509,0.89,-5.98,0.84,6.11
7.519,0.85,-6.18,0.71,6.28
7.529,0.65,-5.82,0.57,5.89
7.539,0.60,-5.04,1.00,5.17
7.549,0.85,-4.27,1.43,4.58
7.559,0.89,-2.82,1.88,3.50
7.569,0.50,-0.77,1.90,2.11
7.579,-0.21,1.43,1.37,1.99
7.589,-0.85,4.06,0.91,4.24
7.599,-1.28,6.22,0.36,6.37
7.609,-1.30,7.90,-0.37,8.01
7.619,-0.08,6.29,-0.39,6.31
7.629,0.84,0.44,-0.42,1.03
7.639,0.51,-2.91,-0.28,2.97
7.649,0.30,-4.32,-0.08,4.34
7.659,0.41,-5.17,-0.19,5.19
7.669,0.60,-5.71,-1.16,5.85
7.679,0.75,-6.19,-2.44,6.69
7.689,0.85,-6.51,-3.02,7.22
7.699,0.59,-6.52,-2.71,7.08
7.709,0.07,-5.92,-2.37,6.37
7.719,-0.46,-4.89,-2.25,5.40
7.729,-0.56,-3.45,-1.82,3.94
7.739,-0.41,-1.96,-1.33,2.41
7.749,-0.17,-1.24,-1.19,1.73
7.759,0.24,-1.26,-1.29,1.82
7.769,0.56,-1.40,-1.68,2.26
7.779,0.55,-1.13,-1.89,2.27
7.789,0.15,-0.76,-2.45,2.57
7.799,-0.32,-0.17,-2.79,2.81
7.809,-0.64,0.37,-2.73,2.83
7.819,-0.92,0.40,-2.69,2.87
7.829,-1.02,0.10,-2.35,2.57
7.839,-0.86,0.15,-1.99,2.18
7.848,-0.43,0.91,-1.99,2.23
7.859,0.17,1.95,-1.83,2.68
7.869,0.89,3.18,-1.62,3.68
7.879,1.48,4.24,-1.61,4.78
7.889,1.72,4.97,-0.94,5.34
7.898,1.92,5.81,-0.12,6.12
7.909,2.20,6.52,0.34,6.89
7.919,2.07,7.15,0.80,7.48
7.929,1.29,7.50,1.73,7.81
7.939,0.88,7.63,2.63,8.12
7.948,1.59,7.85,2.76,8.47
7.959,1.50,7.16,2.41,7.70
7.969,0.74,5.12,1.80,5.48
7.978,0.12,2.78,0.79,2.90
7.988,-0.40,0.97,-0.22,1.08
7.998,-0.68,-0.09,-1.16,1.35
8.008,-0.36,-0.99,-1.79,2.08
8.019,1.36,-3.64,-2.74,4.76
8.028,3.49,-6.46,-4.26,8.49
8.039,3.79,-7.30,-2.65,8.64
8.048,3.53,-7.18,-2.75,8.46
8.058,3.08,-7.03,-1.62,7.85
8.068,2.82,-6.26,-0.54,6.89
8.078,1.97,-4.05,-0.15,4.51
8.088,0.96,-1.12,0.61,1.60
8.098,-0.36,2.47,1.55,2.94
8.108,-2.00,7.43,1.99,7.95
8.118,-2.84,11.23,1.08,11.64
8.128,-2.72,11.21,0.58,11.55
8.138,-2.65,8.35,2.58,9.13
8.148,-2.12,5.68,5.00,7.86
8.158,-1.94,2.43,5.81,6.59
8.168,-2.53,-0.74,4.87,5.54
8.178,-3.10,-2.87,3.43,5.44
8.188,-3.10,-4.32,2.24,5.77
8.198,-2.07,-5.20,1.36,5.76
8.208,-0.59,-5.51,0.43,5.56
8.218,0.48,-4.97,-0.41,5.01
8.228,0.53,-3.46,-1.37,3.75
8.238,0.15,-2.49,-2.62,3.62
8.248,-0.16,-2.42,-2.84,3.73
8.258,0.02,-2.44,-1.91,3.10
8.268,0.38,-1.81,-0.23,1.86
8.278,1.13,-1.59,1.73,2.61
8.288,1.80,-1.57,3.61,4.33
8.298,1.87,-1.02,4.72,5.18
8.308,1.86,-0.40,3.64,4.11
8.318,1.49,-0.72,2.42,2.93
8.328,0.92,-1.18,1.32,1.99
8.338,0.58,-1.24,-0.28,1.39
8.348,0.36,-1.25,-1.77,2.20
8.358,0.18,-1.22,-2.97,3.22
8.368,-0.10,-1.07,-3.82,3.97
8.378,-0.57,-0.53,-4.43,4.50
8.388,-0.98,0.46,-4.75,4.87
8.398,-1.34,1.80,-4.48,5.02
8.408,-1.42,3.31,-2.79,4.55
8.418,-1.32,5.51,0.73,5.72
8.428,-1.26,8.96,4.89,10.28
8.438,-1.25,12.43,5.86,13.80
8.448,-0.35,14.95,1.90,15.07
8.459,0.12,16.52,-2.44,16.70
8.468,-3.08,16.32,-0.80,16.63
8.478,-5.38,7.68,0.87,9.41
8.488,-3.95,-2.86,-0.09,4.87
8.498,-3.03,-5.52,0.19,6.30
8.508,-1.80,-5.53,0.03,5.82
8.518,-0.65,-4.88,-0.57,4.95
8.528,0.20,-5.27,-1.13,5.39
8.538,0.58,-6.65,-1.09,6.76
8.548,0.56,-7.96,-1.09,8.05
8.558,0.62,-8.86,-0.99,8.94
8.568,0.78,-9.33,-0.57,9.38
8.578,0.79,-8.78,0.11,8.81
8.588,0.77,-6.83,0.76,6.92
8.598,0.47,-4.42,1.15,4.59
8.608,0.23,-1.50,0.34,1.56
8.618,0.57,2.00,-1.39,2.50
8.627,1.36,4.86,-1.62,5.30
8.638,2.09,5.61,-1.05,6.08
8.647,2.07,4.53,-1.06,5.09
8.657,1.67,0.67,-2.11,2.77
8.668,1.12,-3.03,-2.51,4.09
8.677,0.15,-5.10,-1.56,5.34
8.688,-0.61,-5.92,-0.40,5.97
8.697,-0.72,-6.12,-0.17,6.16
8.707,-0.38,-5.67,-0.87,5.75
8.718,0.04,-4.84,-1.93,5.21
8.727,0.25,-4.05,-2.67,4.86
8.737,0.08,-3.16,-2.54,4.05
8.747,-0.35,-2.36,-1.80,2.99
8.758,-0.61,-1.73,-1.29,2.24
8.767,-0.70,-1.44,-1.01,1.90
8.777,-0.76,-1.35,-0.85,1.76
8.787,-0.69,-1.10,-1.17,1.75
8.797,-0.71,-0.67,-1.85,2.09
8.807,-0.77,-0.07,-2.60,2.71
8.817,-0.94,0.38,-2.61,2.80
8.827,-1.07,0.60,-2.09,2.43
8.837,-0.99,0.92,-1.68,2.16
8.847,-0.66,1.72,-1.36,2.29
8.857,-0.16,2.75,-1.11,2.96
8.867,0.47,3.42,-0.63,3.51
8.877,1.00,3.81,-0.47,3.97
8.887,1.34,4.38,-0.31,4.59
8.897,1.42,5.02,-0.06,5.22
8.907,1.16,5.24,-0.19,5.37
8.917,0.61,5.17,-0.35,5.22
8.927,0.25,5.61,-0.30,5.62
8.937,0.31,5.97,-0.31,5.99
8.947,0.45,6.20,0.41,6.23
8.957,1.46,6.43,1.13,6.69
8.967,2.72,5.93,1.29,6.65
8.977,2.86,4.31,1.37,5.35
8.987,2.19,2.33,1.23,3.42
8.997,1.57,0.29,1.29,2.06
9.007,1.18,-1.38,0.92,2.04
9.017,1.47,-3.22,-0.01,3.54
9.027,4.12,-6.61,-2.07,8.06
9.037,5.99,-8.70,-2.27,10.80
9.047,5.70,-9.25,-1.41,10.96
9.057,4.66,-10.35,-1.59,11.46
9.067,3.38,-10.31,-0.97,10.89
9.077,0.39,-5.87,-0.85,5.95
9.087,-1.91,-1.36,-0.44,2.39
9.097,-2.67,1.71,0.44,3.20
9.107,-3.59,5.39,1.10,6.56
9.117,-4.16,9.98,0.52,10.83
9.127,-3.64,14.19,-0.98,14.68
9.137,-3.39,13.81,-0.24,14.22
9.147,-2.89,4.62,2.96,6.20
9.157,-3.04,-0.13,5.57,6.34
9.167,-3.61,-1.39,5.81,6.98
9.177,-3.77,-3.44,4.90,7.07
9.187,-3.53,-4.25,3.98,6.81
9.197,-2.63,-3.11,3.08,5.10
9.207,-0.62,-1.13,0.47,1.37
9.217,1.28,1.35,-3.34,3.82
9.227,2.07,4.84,-6.58,8.42
9.237,2.10,6.83,-6.55,9.69
9.247,1.51,6.72,-3.33,7.65
9.257,0.63,6.19,0.45,6.24
9.267,-0.09,5.36,2.11,5.76
9.277,-1.15,5.27,1.75,5.67
9.286,-1.62,5.29,0.85,5.60
9.297,-1.19,4.82,-0.82,5.04
9.307,-0.37,3.41,-2.74,4.39
9.317,0.40,1.69,-4.07,4.42
9.327,1.01,0.03,-4.89,4.99
9.337,1.42,-1.57,-5.44,5.84
9.346,1.51,-2.91,-5.38,6.30
9.356,1.43,-3.96,-4.82,6.40
9.366,1.48,-4.58,-3.72,6.08
9.377,2.15,-5.18,-0.65,5.65
9.386,3.54,-5.53,2.49,7.02
9.396,4.62,-5.61,3.02,7.87
9.406,3.65,-5.14,4.12,7.53
9.416,0.00,-2.21,4.90,5.37
9.426,-4.59,0.76,4.22,6.29
9.436,-8.65,2.94,2.49,9.47
9.446,-10.12,3.99,1.28,10.95
9.456,-7.82,3.55,0.24,8.59
9.466,-3.44,-2.22,0.92,4.19
9.476,-0.67,-7.79,2.14,8.10
9.486,-0.41,-8.41,2.37,8.75
9.496,-0.86,-6.52,1.45,6.74
9.506,-0.65,-5.82,0.44,5.88
9.516,-0.22,-5.15,0.22,5.16
9.526,0.22,-3.58,0.25,3.59
9.536,0.69,-1.84,0.07,1.96
9.546,0.94,-0.63,-0.12,1.14
9.556,1.24,0.08,-0.18,1.26
9.566,1.55,0.80,-0.96,1.99
9.576,1.35,1.86,-1.73,2.87
9.586,0.59,3.27,-1.65,3.71
9.596,-0.38,5.45,-0.38,5.48
9.606,-1.14,7.26,1.19,7.44
9.616,-0.51,4.07,1.20,4.27
9.626,-0.06,-0.97,0.28,1.02
9.636,-0.34,-3.70,-0.04,3.71
9.646,-0.09,-4.95,-0.64,4.99
9.656,0.28,-5.52,-1.46,5.71
9.666,0.32,-5.89,-2.24,6.31
9.676,0.17,-5.88,-2.53,6.41
9.686,0.08,-5.56,-2.60,6.14
9.696,-0.01,-5.24,-2.30,5.73
9.706,-0.30,-4.83,-1.72,5.14
9.716,-0.77,-3.67,-0.87,3.85
9.726,-1.09,-1.89,0.13,2.18
9.736,-1.25,-0.03,0.48,1.34
9.746,-1.17,1.35,-0.25,1.80
9.756,-1.10,2.14,-0.94,2.59
9.766,-1.20,2.53,-1.51,3.18
9.776,-1.36,2.43,-2.05,3.46
9.786,-1.37,1.41,-2.22,2.97
9.796,-0.83,-0.18,-2.21,2.37
9.806,0.08,-0.91,-2.20,2.38
9.816,0.65,-0.92,-2.53,2.77
9.826,0.82,-0.75,-2.89,3.10
9.836,0.85,-0.36,-2.87,3.02
9.846,0.80,0.36,-2.59,2.74
9.856,0.72,1.60,-2.63,3.17
9.866,0.67,3.17,-3.05,4.45
9.876,0.63,5.03,-3.15,5.97
9.886,0.63,7.01,-2.58,7.50
9.896,0.78,8.08,-1.30,8.22
9.906,0.51,8.12,-0.01,8.14
9.915,-0.33,8.13,0.69,8.17
9.926,-0.83,8.20,0.92,8.29
9.936,-0.63,8.33,1.30,8.46
9.946,-0.44,7.93,1.72,8.13
9.956,-0.36,6.07,1.92,6.38
9.965,-0.15,3.42,2.29,4.12
9.976,-0.01,1.12,2.46,2.70
9.985,0.18,-0.28,2.19,2.21
9.996,1.04,-1.53,1.42,2.33
10.006,3.35,-5.40,0.49,6.37
10.016,5.22,-8.02,0.53,9.59
10.026,4.63,-9.91,-0.21,10.94
10.036,3.66,-11.57,-0.92,12.17
10.046,3.15,-10.17,-1.14,10.71
10.055,2.59,-7.18,-1.58,7.80
10.065,2.61,-4.18,-2.04,5.33
10.076,2.61,-1.12,-0.98,3.00
10.085,2.25,2.94,0.74,3.78
10.095,1.97,7.15,2.55,7.84
10.105,1.23,10.28,2.61,10.67
10.115,-0.47,10.72,1.08,10.78
10.125,-2.73,9.06,0.52,9.48
10.135,-3.75,8.23,1.17,9.12
10.145,-3.88,5.45,3.31,7.47
10.155,-4.40,1.02,4.48,6.36
10.165,-4.88,-2.03,4.12,6.71
10.175,-4.60,-3.53,3.64,6.84
10.185,-3.40,-3.92,3.26,6.13
10.195,-1.77,-2.71,1.89,3.74
10.205,-0.42,-0.64,-0.35,0.84
10.215,0.19,0.80,-2.81,2.93
10.225,0.49,1.50,-4.10,4.39
10.235,0.81,1.68,-3.57,4.03
10.245,0.91,2.16,-2.01,3.09
10.255,1.14,2.32,-0.55,2.64
10.265,1.25,1.90,0.47,2.33
10.275,1.18,1.22,0.79,1.87
10.285,1.28,0.11,-0.18,1.30
10.295,1.38,-1.27,-1.91,2.67
10.305,1.32,-2.38,-3.06,4.10
10.315,1.46,-3.17,-3.75,5.13
10.325,1.82,-3.66,-3.55,5.42
10.335,2.57,-4.28,-2.22,5.46
10.345,3.53,-4.85,-0.99,6.08
10.355,4.08,-4.18,-0.32,5.85
10.365,3.58,-2.61,1.45,4.66
10.375,1.06,1.16,2.68,3.11
10.385,-2.44,4.47,4.68,6.91
10.395,-5.32,6.38,4.24,9.32
10.405,-7.17,6.71,1.06,9.88
10.415,-6.77,5.00,-2.05,8.66
10.425,-4.45,-3.19,-0.87,5.54
10.435,-3.58,-8.96,1.61,9.78
10.445,-4.45,-9.43,2.73,10.78
10.455,-5.33,-8.61,2.36,10.40
10.465,-5.66,-8.00,1.47,9.91
10.475,-5.54,-7.07,0.50,9.00
10.485,-5.02,-5.35,0.31,7.34
10.495,-3.76,-3.50,0.61,5.18
10.505,-1.87,-1.55,0.70,2.53
10.515,-0.07,0.32,-0.28,0.43
10.525,1.64,2.65,-1.09,3.30
10.535,2.69,5.73,-0.32,6.34
10.545,3.09,8.98,-0.51,9.51
10.555,3.63,12.32,-0.49,12.85
10.565,5.10,10.52,0.60,11.71
10.575,4.86,2.90,0.02,5.66
10.585,2.26,-2.50,-0.12,3.38
10.595,0.39,-4.63,0.19,4.65
10.605,-0.43,-4.74,-0.01,4.76
10.614,-0.77,-4.30,-0.63,4.42
10.625,-0.98,-4.00,-1.53,4.39
10.635,-0.99,-3.85,-2.32,4.60
10.645,-1.03,-3.86,-2.42,4.67
10.654,-1.07,-3.63,-1.69,4.15
10.665,-0.86,-3.24,-0.90,3.47
10.674,-0.43,-2.61,-0.61,2.72
10.684,-0.24,-1.97,-0.61,2.08
10.694,-0.27,-1.55,-1.13,1.94
10.704,-0.12,-1.26,-2.09,2.45
10.714,0.10,-1.00,-3.12,3.28
10.724,0.22,-0.70,-3.88,3.95
10.734,0.35,-0.31,-4.13,4.16
10.744,0.80,-0.02,-3.98,4.06
10.754,1.80,0.14,-3.70,4.11
10.764,2.73,0.42,-3.35,4.34
10.774,3.10,0.84,-2.76,4.24
10.784,2.84,1.45,-2.27,3.91
10.794,1.99,2.31,-1.79,3.53
10.804,1.02,3.19,-1.13,3.53
10.814,0.22,4.05,-0.49,4.09
10.824,-0.42,4.87,0.07,4.88
10.834,-1.06,5.59,0.92,5.76
10.844,-1.68,6.38,1.65,6.80
10.854,-2.07,6.35,1.83,6.93
10.864,-2.46,5.83,1.96,6.62
10.874,-2.40,5.93,1.99,6.70
10.884,-1.59,6.47,1.70,6.88
10.894,-0.67,6.18,1.17,6.32
10.904,0.43,4.90,0.58,4.95
10.914,1.73,3.35,0.20,3.78
10.924,2.56,1.86,0.02,3.16
10.934,2.74,0.30,-0.14,2.76
10.944,2.74,-1.04,-0.39,2.95
10.954,2.70,-2.63,-0.36,3.78
10.964,3.82,-4.34,-0.73,5.83
10.974,4.67,-7.26,-1.23,8.72
10.984,3.96,-9.70,-0.79,10.51
10.994,3.50,-9.61,-1.21,10.30
11.004,3.44,-6.77,-1.24,7.69
11.014,3.31,-3.17,-0.91,4.67
11.024,2.46,-0.47,-0.84,2.64
11.034,0.48,2.65,-0.24,2.70
11.044,-1.81,7.30,-0.10,7.52
11.054,-3.92,11.97,-0.92,12.63
11.064,-5.82,13.67,-0.28,14.85
11.074,-6.13,10.54,3.26,12.62
11.084,-4.71,6.11,7.07,10.46
11.094,-3.79,2.47,9.60,10.62
11.104,-3.19,-0.84,9.23,9.80
11.114,-2.10,-3.32,6.86,7.90
11.124,-0.62,-4.83,4.11,6.37
11.134,1.16,-5.83,1.46,6.12
11.144,2.30,-6.40,-0.50,6.82
11.154,2.25,-5.19,-1.90,5.97
11.164,2.06,-4.92,-2.90,6.08
11.174,1.38,-4.14,-2.53,5.04
11.184,1.36,-3.97,-2.57,4.92
11.194,1.82,-4.06,-2.36,5.04
11.204,1.67,-3.21,-1.28,3.84
11.214,1.17,-1.28,0.60,1.83
11.223,0.83,0.92,2.35,2.66
11.234,0.68,2.27,2.58,3.50
11.244,0.21,3.09,0.78,3.19
11.254,-0.81,4.34,-1.92,4.81
11.264,-1.20,4.17,-4.15,6.01
11.274,-1.34,2.14,-4.78,5.40
11.283,-1.64,-0.90,-4.30,4.68
11.294,-1.37,-2.97,-3.14,4.54
11.303,-0.14,-3.17,-0.84,3.28
11.314,1.82,-2.03,1.25,3.00
11.323,3.34,0.29,1.36,3.62
11.333,2.82,3.26,0.79,4.39
11.344,-0.38,5.35,-0.13,5.37
11.354,-4.95,5.65,0.47,7.52
11.364,-7.99,5.77,1.15,9.92
11.374,-8.48,5.22,0.40,9.96
11.384,-6.03,1.96,0.70,6.38
11.393,-2.58,-5.47,1.50,6.23
11.403,-0.96,-7.77,1.92,8.06
11.413,-0.88,-6.09,2.18,6.52
11.423,-1.13,-4.95,1.30,5.24
11.433,-1.24,-4.08,0.26,4.27
11.443,-1.35,-2.60,-0.45,2.96
11.453,-1.23,-1.32,-0.56,1.89
11.463,-0.68,-0.27,-0.27,0.78
11.473,0.20,-0.60,-0.20,0.67
11.483,1.03,-0.85,-0.39,1.39
11.493,1.46,0.20,-0.07,1.48
11.503,1.24,1.91,0.74,2.40
11.513,0.44,3.34,1.36,3.63
11.523,-0.59,3.35,1.90,3.89
11.533,-1.24,1.86,2.42,3.29
11.543,-1.01,0.33,1.98,2.25
11.553,-0.20,-0.48,0.43,0.67
11.563,0.26,-1.32,-0.73,1.53
11.573,-0.06,-2.32,-1.09,2.56
11.583,-0.68,-2.92,-1.21,3.23
11.593,-1.04,-3.40,-1.33,3.80
11.603,-1.00,-3.87,-1.64,4.32
11.613,-0.95,-4.03,-1.42,4.38
11.623,-1.00,-3.81,-1.14,4.10
11.633,-1.25,-3.32,-1.09,3.72
11.643,-1.54,-2.38,-1.33,3.13
11.653,-1.52,-1.11,-2.02,2.76
11.663,-0.96,0.20,-2.48,2.67
11.673,-0.11,1.40,-2.65,2.99
11.683,0.76,2.52,-2.70,3.77
11.693,1.53,3.31,-2.72,4.55
11.703,2.15,3.17,-2.69,4.68
11.713,2.57,2.82,-2.73,4.69
11.723,2.99,2.65,-2.83,4.90
11.733,3.40,2.38,-3.34,5.33
11.743,3.50,2.23,-3.33,5.32
11.753,3.23,2.38,-2.98,4.99
11.763,2.95,2.67,-2.84,4.88
11.773,2.84,3.19,-2.78,5.10
11.783,2.82,3.45,-2.08,4.91
11.793,2.75,3.37,-1.05,4.48
11.803,2.44,2.71,0.41,3.67
11.813,2.53,1.69,1.58,3.43
11.823,3.07,1.03,1.83,3.72
11.833,3.12,1.31,1.60,3.74
11.843,2.44,2.12,1.16,3.43
11.853,1.37,2.27,1.07,2.86
11.863,0.04,1.10,1.09,1.55
11.873,-0.15,-1.82,0.45,1.88
11.883,-0.10,-3.64,-0.79,3.73
11.893,-1.05,-3.84,-0.39,4.00
11.903,-1.98,-3.64,-1.33,4.35
11.913,-2.47,-3.09,-2.60,4.74
11.922,-2.22,-2.09,-3.07,4.32
11.932,-1.04,-0.07,-2.32,2.54
11.943,0.12,1.65,-1.09,1.98
11.953,0.61,3.58,0.47,3.67
11.963,0.77,4.14,2.11,4.71
11.973,0.24,2.83,3.47,4.48
11.983,-0.43,1.05,4.48,4.62
11.993,-0.58,0.32,4.97,5.02
12.003,-0.63,0.32,4.86,4.91
12.013,-1.06,-0.32,4.60,4.73
12.022,-1.37,-1.41,4.74,5.13
12.033,-0.60,-2.53,4.14,4.89
12.043,0.29,-2.45,2.33,3.39
12.052,1.07,-1.33,0.16,1.72
12.062,1.68,1.04,-1.10,2.26
12.072,1.61,3.93,-3.38,5.43
12.082,1.20,5.73,-5.35,7.93
12.092,1.01,6.75,-4.52,8.19
12.102,0.89,6.88,-3.44,7.74
12.112,0.45,5.69,-2.27,6.14
12.122,-0.51,4.17,-1.20,4.37
12.133,-1.53,3.23,-0.52,3.61
12.142,-1.97,2.73,-0.44,3.39
12.152,-1.61,1.78,-1.11,2.64
12.162,-1.10,0.28,-2.31,2.58
12.172,-1.02,-1.29,-3.36,3.74
12.182,-1.28,-2.58,-3.90,4.85
12.192,-1.58,-3.91,-4.23,5.97
12.202,-1.78,-5.54,-4.27,7.22
12.212,-1.82,-6.85,-3.11,7.74
12.222,-1.56,-8.43,-0.77,8.61
12.232,-1.14,-8.86,1.05,8.99
12.242,-1.33,-8.57,2.82,9.12
12.252,-3.33,-6.54,4.20,8.46
12.262,-6.51,-2.21,4.11,8.01
12.272,-8.80,1.14,2.50,9.22
12.282,-8.63,3.90,2.05,9.69
12.292,-6.71,5.96,1.28,9.06
12.302,-4.97,6.32,1.40,8.17
12.312,-2.05,-0.87,2.27,3.18
12.322,0.47,-7.82,2.23,8.15
12.332,0.72,-6.28,1.36,6.47
12.342,0.84,-1.54,-0.43,1.81
12.352,2.41,0.57,-1.14,2.72
12.362,4.00,1.87,-1.17,4.57
12.372,4.92,2.06,-0.41,5.35
12.382,4.99,1.27,0.10,5.15
12.392,4.15,0.91,-0.13,4.25
12.402,2.68,1.83,-0.52,3.28
12.412,1.16,2.72,-0.32,2.97
12.422,-0.29,2.88,0.66,2.97
12.432,-1.18,2.15,1.61,2.93
12.442,-1.47,0.10,1.98,2.47
12.452,-1.48,-1.19,1.79,2.61
12.462,-1.27,-1.71,1.06,2.38
12.472,-1.17,-2.37,0.45,2.68
12.482,-1.27,-3.09,-0.00,3.34
12.492,-1.34,-3.43,-0.84,3.78
12.502,-1.23,-3.37,-1.75,3.99
12.512,-1.06,-3.29,-2.16,4.08
12.522,-1.20,-3.28,-2.49,4.29
12.532,-1.64,-3.50,-2.63,4.68
12.542,-2.17,-3.73,-2.46,4.96
12.552,-2.65,-3.37,-1.66,4.60
12.561,-3.06,-2.64,-0.26,4.05
12.571,-3.23,-1.93,0.53,3.80
12.581,-3.11,-1.09,0.51,3.33
12.592,-2.72,-0.28,-0.06,2.73
12.601,-2.12,0.14,-0.45,2.18
12.612,-1.56,0.27,-0.71,1.74
12.621,-1.10,-0.05,-1.19,1.62
12.631,-0.48,-0.35,-1.59,1.69
12.641,0.27,-0.28,-2.04,2.08
12.652,0.96,-0.13,-2.43,2.61
12.661,1.52,0.30,-2.77,3.18
12.672,2.07,0.97,-3.19,3.93
12.681,2.62,2.19,-3.57,4.94
12.691,2.98,3.87,-3.21,5.85
12.701,3.01,5.36,-2.13,6.51
12.711,2.67,6.55,-1.24,7.18
12.721,2.18,7.17,-0.92,7.55
12.731,1.57,7.52,-0.33,7.69
12.741,0.53,7.35,0.75,7.41
12.751,-0.53,6.55,1.86,6.83
12.761,-0.18,6.23,2.89,6.87
12.771,1.18,6.74,3.19,7.55
12.781,1.86,6.80,2.55,7.50
12.791,1.92,5.81,1.44,6.28
12.801,1.59,3.97,0.44,4.30
12.811,1.23,1.89,-0.08,2.26
12.821,1.04,0.14,-0.19,1.07
12.831,1.15,-1.08,-0.20,1.59
12.841,1.94,-2.27,-0.76,3.08
12.851,4.14,-4.63,-2.65,6.75
12.861,4.69,-7.59,-2.55,9.28
12.871,4.35,-8.71,-1.08,9.80
12.881,3.81,-8.08,-0.83,8.97
12.891,3.36,-6.17,-0.81,7.07
12.901,3.06,-3.86,-0.94,5.02
12.911,2.29,-0.82,-0.47,2.47
12.921,0.68,1.94,0.51,2.12
12.931,-1.76,4.83,1.15,5.26
12.941,-3.99,8.00,0.15,8.94
12.951,-5.41,10.00,-1.27,11.44
12.961,-5.92,7.83,-0.48,9.83
12.971,-5.78,2.84,2.62,6.96
12.981,-5.58,-0.22,5.41,7.77
12.991,-5.34,-1.89,6.29,8.46
13.001,-4.54,-3.53,5.28,7.80
13.011,-3.02,-5.15,3.87,7.11
13.021,-1.16,-6.34,2.86,7.05
13.031,0.82,-6.85,1.82,7.13
13.041,2.53,-7.19,0.76,7.65
13.051,3.39,-7.65,-0.36,8.38
13.061,3.30,-6.97,-1.09,7.79
13.071,3.05,-5.69,-1.52,6.63
13.081,2.90,-5.05,-1.48,6.01
13.091,2.72,-4.60,-0.95,5.43
13.101,2.42,-3.91,-0.32,4.61
13.111,1.87,-2.91,0.73,3.53
13.121,1.31,-1.88,1.98,3.03
13.131,0.69,-0.83,2.90,3.09
13.141,-0.08,0.39,2.99,3.01
13.151,-0.96,1.98,2.05,3.00
13.161,-1.55,3.13,0.99,3.64
13.171,-1.93,2.11,-0.05,2.86
13.181,-1.20,1.53,-1.23,2.30
13.191,-0.04,1.36,-2.47,2.82
13.201,0.76,0.76,-3.18,3.36
13.211,1.31,0.35,-3.56,3.81
13.221,1.60,0.16,-3.63,3.97
13.230,1.70,0.20,-3.45,3.85
13.240,1.57,0.60,-3.22,3.63
13.251,1.08,1.37,-3.31,3.75
13.261,0.43,2.67,-3.32,4.28
13.271,0.05,4.43,-2.39,5.03
13.281,0.23,6.23,-0.52,6.25
13.291,0.90,8.02,1.64,8.23
13.300,1.95,8.89,3.84,9.88
13.311,3.83,9.87,3.09,11.03
13.321,4.98,10.11,-0.62,11.29
13.331,3.50,9.28,-2.97,10.35
13.340,-0.84,7.28,-2.43,7.72
13.351,-5.45,2.85,-1.28,6.29
13.361,-7.21,-1.58,-1.22,7.48
13.370,-5.51,-3.79,-2.30,7.07
13.380,-2.72,-3.96,-1.95,5.19
13.391,-1.42,-3.19,-1.11,3.66
13.401,-0.91,-3.47,-0.37,3.60
13.411,-0.44,-4.17,0.22,4.19
13.420,-0.07,-4.65,0.83,4.72
13.430,0.36,-4.83,1.77,5.16
13.440,1.46,-4.23,2.58,5.17
13.450,2.60,-3.13,3.26,5.21
13.460,3.35,-1.93,3.91,5.50
13.470,3.55,-1.24,3.85,5.38
13.480,3.19,-1.19,3.05,4.57
13.490,2.51,-1.67,1.67,3.44
13.500,1.37,-2.40,0.56,2.82
13.510,0.14,-2.35,-0.05,2.36
13.520,-1.16,-1.48,-0.46,1.94
13.530,-2.37,-0.50,-1.03,2.63
13.540,-3.45,-0.09,-1.66,3.83
13.550,-3.78,-0.57,-1.86,4.26
13.560,-3.49,-1.88,-1.02,4.10
13.570,-2.96,-1.82,-0.15,3.48
13.580,-2.26,-1.39,0.50,2.70
13.590,-1.57,-1.16,1.05,2.22
13.600,-1.14,-1.20,1.28,2.09
13.610,-0.95,-1.44,0.92,1.96
13.620,-0.96,-1.88,-0.03,2.11
13.630,-1.07,-2.22,-1.00,2.65
13.640,-1.15,-2.11,-1.48,2.82
13.650,-1.23,-1.74,-1.58,2.65
13.660,-1.56,-1.46,-1.42,2.57
13.670,-2.09,-1.49,-1.09,2.79
13.680,-2.06,-1.39,-1.21,2.76
13.690,-1.21,-0.96,-1.25,1.99
13.700,-0.13,-0.71,-1.14,1.35
13.710,0.71,-0.88,-1.00,1.50
13.720,1.09,-1.25,-1.00,1.94
13.730,1.08,-1.70,-0.86,2.19
13.740,0.75,-1.91,-1.01,2.28
13.750,0.37,-1.94,-1.20,2.31
13.760,0.23,-1.62,-1.17,2.01
13.770,0.28,-1.07,-1.11,1.57
13.780,0.32,-0.57,-0.99,1.18
13.790,0.39,-0.29,-0.93,1.05
13.800,0.55,-0.36,-0.79,1.03
13.810,0.69,-0.57,-0.53,1.04
13.820,0.73,-0.69,-0.24,1.03
13.830,0.66,-0.87,-0.05,1.09
13.840,0.60,-1.07,-0.02,1.23
13.850,0.61,-1.14,-0.23,1.32
13.860,0.79,-0.92,-0.57,1.33
13.870,0.90,-0.48,-0.84,1.32
13.880,1.02,-0.01,-1.00,1.43
13.890,1.03,0.54,-1.28,1.73
13.900,0.88,1.19,-1.66,2.22
13.910,0.87,1.73,-2.17,2.91
13.920,0.89,2.59,-2.76,3.89
13.930,1.03,3.83,-3.52,5.30
13.940,1.25,5.18,-3.91,6.60
13.950,0.95,6.81,-3.42,7.68
13.959,0.09,8.74,-2.07,8.98
13.970,-0.67,10.70,-0.35,10.73
13.980,-0.85,11.99,0.86,12.05
13.991,-0.97,11.36,2.36,11.65
14.000,-0.91,8.62,2.79,9.11
14.010,-0.06,5.23,0.88,5.31
14.019,0.15,2.51,-0.77,2.63
14.030,-0.43,1.72,-1.56,2.36
14.039,-0.55,1.62,-2.33,2.89
14.050,0.57,0.46,-3.30,3.38
14.059,2.06,-1.29,-3.92,4.61
14.070,3.35,-2.74,-3.60,5.64
14.079,4.33,-3.32,-2.85,6.15
14.089,4.94,-3.58,-2.14,6.47
14.099,5.36,-4.02,-1.22,6.81
14.109,5.61,-4.78,-0.35,7.38
14.120,5.76,-5.63,0.50,8.07
14.130,5.75,-6.03,1.45,8.46
14.139,5.46,-5.84,1.94,8.22
14.150,4.94,-5.26,2.31,7.57
14.159,4.39,-4.27,2.40,6.58
14.169,3.64,-2.95,2.32,5.23
14.179,2.58,-1.36,2.36,3.75
14.189,1.27,0.44,2.30,2.66
14.199,-0.26,2.36,2.09,3.16
14.209,-1.92,4.26,1.57,4.93
14.219,-3.52,6.20,1.13,7.22
14.229,-4.55,7.99,1.63,9.33
14.239,-4.27,7.87,2.97,9.43
14.249,-2.78,5.25,4.06,7.19
14.259,-1.67,2.48,4.38,5.31
14.269,-1.45,0.44,4.56,4.80
14.279,-1.47,-1.43,4.69,5.12
14.289,-1.19,-2.92,4.50,5.50
14.299,-0.81,-3.50,4.04,5.41
14.309,-0.34,-4.26,3.17,5.32
14.319,0.42,-5.52,1.80,5.83
14.329,0.93,-7.31,0.45,7.38
14.339,0.17,-6.62,-0.71,6.66
14.349,-0.86,-3.71,-0.96,3.93
14.359,-1.13,-2.33,-1.27,2.89
14.369,-0.49,-1.95,-1.74,2.66
14.379,0.52,-1.74,-2.08,2.76
14.389,1.33,-1.29,-2.31,2.96
14.399,1.68,-0.49,-1.96,2.63
14.409,1.53,0.73,-0.98,1.95
14.419,1.23,2.05,0.21,2.40
14.429,0.81,3.36,1.44,3.75
14.439,0.53,4.19,2.41,4.86
14.449,0.72,4.20,3.21,5.33
14.459,0.83,3.88,3.70,5.43
14.469,1.31,2.86,3.77,4.90
14.479,1.92,1.25,3.37,4.08
14.489,2.22,-0.24,2.71,3.51
14.499,1.81,-0.51,2.05,2.78
14.509,1.48,-0.43,1.05,1.86
14.519,1.19,-0.59,-0.11,1.34
14.529,0.80,-0.51,-1.20,1.53
14.539,0.59,-0.30,-2.07,2.17
14.549,0.62,-0.18,-2.40,2.48
14.559,1.09,-0.52,-2.54,2.81
14.569,1.63,-1.32,-2.71,3.42
14.579,2.09,-2.49,-2.57,4.15
14.589,2.36,-3.22,-1.93,4.43
14.599,2.62,-3.59,-1.14,4.59
14.609,3.05,-4.14,-0.38,5.15
14.619,3.85,-4.84,-0.07,6.18
14.629,4.95,-5.25,0.01,7.21
14.639,6.07,-5.19,0.46,8.00
14.649,6.77,-5.39,0.88,8.70
14.659,6.58,-6.90,0.61,9.55
14.669,5.81,-8.53,0.67,10.34
14.679,6.32,-5.13,0.57,8.16
14.688,5.61,0.23,-0.71,5.66
14.698,1.55,8.18,2.50,8.69
14.708,-4.26,18.65,7.31,20.48
14.719,-8.57,25.76,8.49,28.45
14.729,-12.11,23.93,4.39,27.17
14.738,-11.67,9.16,2.50,15.04
14.749,-8.69,-2.51,1.93,9.25
14.758,-6.75,-5.05,1.79,8.62
14.769,-5.94,-5.07,1.42,7.94
14.778,-6.96,-5.20,2.08,8.93
14.788,-8.89,-5.49,2.55,10.76
14.798,-9.52,-4.24,0.29,10.42
14.808,-8.83,-2.63,-2.54,9.55
14.818,-7.37,-1.36,-3.10,8.11
14.828,-6.24,-0.05,-4.21,7.52
14.838,-5.81,1.15,-6.17,8.55
14.848,-5.32,2.02,-6.89,8.93
14.858,-4.34,2.75,-5.79,7.74
14.868,-2.84,2.30,-4.26,5.61
14.878,-0.80,-0.13,-2.58,2.71
14.888,1.59,-1.68,-3.98,4.60
14.898,3.22,-1.77,-5.07,6.26
14.908,3.44,-1.59,-4.02,5.52
14.918,3.01,-1.44,-3.59,4.90
14.928,2.40,-1.72,-3.91,4.90
14.938,1.71,-1.78,-4.05,4.74
14.948,1.12,-1.55,-4.23,4.64
14.958,0.76,-1.21,-4.43,4.66
14.968,0.76,-1.01,-4.27,4.45
14.978,0.82,-1.20,-3.88,4.14
14.988,1.10,-1.66,-3.59,4.11
14.998,1.88,-2.15,-3.84,4.79
15.008,2.97,-2.66,-4.30,5.86
15.018,4.38,-2.61,-5.27,7.33
15.028,6.20,-0.98,-6.20,8.82
15.038,7.73,0.40,-5.20,9.32
15.048,9.01,1.26,-4.49,10.14
15.058,9.86,1.57,-3.62,10.62
15.068,9.52,0.96,-2.51,9.89
15.078,8.48,0.12,-1.24,8.57
15.088,7.49,0.11,0.03,7.49
15.098,6.52,0.76,0.74,6.61
15.108,5.34,1.15,0.88,5.53
15.118,3.90,1.12,0.74,4.13
15.128,2.39,0.71,0.65,2.58
15.138,0.89,-0.09,0.32,0.95
15.148,-0.55,-1.58,-0.30,1.70
15.158,-1.88,-4.73,-1.39,5.28
15.168,-2.80,-6.94,-2.82,8.00
15.178,-3.56,-6.05,-3.75,7.96
15.188,-4.38,-3.60,-4.42,7.19
15.198,-4.81,-1.03,-5.56,7.43
15.208,-4.98,3.46,-4.15,7.35
15.218,-4.61,9.52,-3.46,11.13
15.228,-2.04,14.18,-4.89,15.13
15.239,4.24,14.97,-4.69,16.25
15.249,13.06,13.55,5.01,19.47
15.258,16.52,8.46,13.72,23.09
15.268,11.96,3.45,13.82,18.59
15.278,6.90,2.04,9.61,12.00
15.288,4.69,0.84,5.01,6.92
15.298,3.49,-0.03,2.32,4.20
15.308,3.09,0.63,1.93,3.69
15.318,3.13,0.92,1.38,3.54
15.328,3.36,0.80,-0.42,3.48
15.338,3.14,0.71,-2.64,4.17
15.348,2.47,0.23,-3.95,4.67
15.357,1.56,-0.30,-4.29,4.57
15.368,0.54,-1.84,-4.41,4.81
15.377,-0.44,-3.77,-3.73,5.32
15.388,-1.07,-4.35,-1.32,4.67
15.397,-0.82,-4.04,1.86,4.52
15.408,0.01,-3.67,4.44,5.76
15.417,0.64,-2.45,5.66,6.20
15.428,0.68,-0.26,5.13,5.18
15.437,1.24,0.36,3.97,4.17
15.447,1.85,0.32,2.47,3.10
15.457,1.98,0.39,0.88,2.20
15.467,1.72,0.37,-0.89,1.98
15.477,1.08,0.16,-2.46,2.69
15.487,0.21,-0.16,-3.43,3.44
15.497,-0.63,-0.42,-3.87,3.94
15.507,-1.19,-0.44,-3.68,3.89
15.517,-1.29,-0.33,-2.95,3.24
15.527,-0.95,-0.21,-2.01,2.23
15.537,-0.50,0.50,-0.88,1.13
15.547,-0.06,2.31,0.86,2.46
15.557,0.56,5.03,2.52,5.65
15.567,1.40,7.89,3.54,8.76
15.577,2.08,9.90,2.17,10.34
15.587,2.84,10.32,-0.62,10.73
15.597,2.37,8.77,-1.44,9.20
15.607,0.18,6.60,-1.34,6.74
15.617,-1.84,4.60,-1.07,5.07
15.627,-2.14,3.03,-1.14,3.88
15.637,-0.73,0.57,-1.18,1.50
15.647,-0.10,-1.23,-0.71,1.42
15.657,-0.36,-1.91,0.24,1.96
15.667,-0.06,-2.33,0.84,2.48
15.677,0.57,-2.80,1.16,3.08
15.687,0.90,-3.33,1.64,3.81
15.697,0.90,-3.69,2.09,4.34
15.707,0.68,-3.69,2.44,4.48
15.717,0.35,-3.35,2.59,4.25
15.727,0.02,-2.93,2.35,3.75
15.737,-0.29,-2.69,1.60,3.15
15.747,-0.60,-2.49,0.68,2.66
15.757,-0.94,-2.38,-0.07,2.56
15.767,-1.32,-2.36,-0.59,2.77
15.777,-1.65,-2.35,-0.88,3.00
15.787,-2.01,-1.83,-1.06,2.92
15.797,-2.03,-0.53,-0.99,2.32
15.807,-1.78,1.01,-0.47,2.10
15.817,-1.60,2.43,-0.11,2.92
15.827,-1.11,3.66,-0.17,3.83
15.837,-0.06,4.33,0.11,4.33
15.847,0.96,3.08,0.79,3.32
15.857,1.38,1.43,1.03,2.24
15.867,1.21,0.07,0.97,1.56
15.877,0.84,-0.80,1.13,1.62
15.887,0.28,-1.40,1.19,1.86
15.897,-0.37,-1.91,1.32,2.35
15.907,-0.86,-2.18,1.25,2.66
15.917,-1.17,-2.52,0.91,2.92
15.927,-1.21,-3.01,0.39,3.26
15.937,-0.98,-3.38,-0.08,3.52
15.947,-0.61,-3.49,-0.29,3.56
15.957,-0.37,-3.36,-0.23,3.39
15.967,-0.37,-3.41,-0.09,3.43
15.976,-0.40,-3.50,-0.42,3.55
15.987,-0.59,-3.48,-0.89,3.64
15.997,-0.81,-3.32,-1.43,3.70
16.007,-1.07,-2.95,-1.98,3.71
16.017,-1.30,-2.34,-2.21,3.47
16.026,-1.19,-1.49,-2.45,3.11
16.036,-0.82,-0.46,-2.70,2.86
16.046,-0.45,0.33,-2.71,2.77
16.056,0.18,0.36,-2.65,2.68
16.066,1.14,-0.09,-2.71,2.94
16.076,2.30,-0.25,-2.56,3.45
16.086,3.47,-0.30,-2.14,4.08
16.096,4.51,-0.63,-1.86,4.92
16.106,5.22,-1.33,-1.52,5.60
16.116,5.18,-1.65,-1.05,5.53
16.127,4.22,-1.07,-0.14,4.35
16.136,2.57,0.18,0.74,2.68
16.146,1.09,2.59,1.12,3.02
16.156,0.55,5.30,1.21,5.46
16.166,0.44,8.00,0.49,8.02
16.176,0.47,9.22,0.37,9.24
16.186,0.50,8.96,1.01,9.03
16.196,0.05,8.69,1.53,8.82
16.206,-0.63,8.71,1.72,8.90
16.216,-1.07,8.81,2.11,9.12
16.226,-1.42,8.73,2.47,9.18
16.236,-1.65,8.35,2.34,8.83
16.246,-1.81,7.61,1.71,8.01
16.256,-1.91,6.40,0.82,6.73
16.266,-2.11,4.08,-0.06,4.59
16.276,-2.27,1.28,-0.65,2.69
16.286,-2.24,-1.02,0.15,2.47
16.296,-1.99,-2.52,0.98,3.36
16.306,-1.19,-3.46,1.14,3.83
16.316,0.74,-6.21,-0.22,6.26
16.326,3.35,-10.13,-2.37,10.93
16.336,5.36,-11.17,-1.47,12.48
16.346,4.86,-10.82,-2.05,12.03
16.356,3.48,-9.53,-1.62,10.27
16.366,2.49,-5.36,-1.85,6.20
16.376,2.40,-0.87,-3.47,4.31
16.386,2.79,2.16,-3.61,5.04
16.396,3.15,5.46,-1.05,6.39
16.406,3.80,9.69,0.73,10.43
16.416,4.26,11.36,2.50,12.39
16.427,3.34,10.41,6.17,12.55
16.436,1.49,8.41,8.38,11.97
16.446,-0.65,3.53,8.66,9.37
16.456,-2.29,-0.84,7.87,8.24
16.466,-2.88,-3.46,6.21,7.66
16.476,-2.40,-4.90,4.02,6.77
16.486,-1.02,-5.18,2.01,5.65
16.496,0.66,-5.33,0.40,5.39
16.506,1.49,-5.20,-0.55,5.43
16.516,1.37,-4.51,-1.51,4.95
16.526,0.94,-3.95,-2.70,4.87
16.536,0.72,-3.60,-2.91,4.69
16.546,0.94,-3.82,-1.90,4.37
16.556,1.16,-3.80,-0.52,4.01
16.566,0.83,-2.74,1.03,3.04
16.576,0.38,-2.00,2.63,3.33
16.586,0.31,-1.88,3.81,4.26
16.596,0.18,-1.45,3.72,4.00
16.606,-0.26,-0.81,2.81,2.94
16.616,-0.31,-0.75,1.51,1.72
16.626,0.04,-1.64,0.08,1.64
16.636,0.18,-2.19,-1.31,2.55
16.645,-0.65,-1.28,-2.46,2.85
16.656,-1.60,0.30,-3.77,4.10
16.666,-2.08,1.48,-4.29,4.99
16.676,-2.20,2.30,-3.69,4.87
16.686,-1.82,2.56,-2.67,4.12
16.696,-1.42,3.49,-0.69,3.83
16.706,-1.55,6.49,1.25,6.79
16.716,-0.63,11.17,2.31,11.43
16.726,2.14,14.04,0.83,14.23
16.736,1.92,14.06,0.05,14.19
16.746,-1.51,11.24,-0.23,11.35
16.756,-2.51,3.59,-1.96,4.80
16.765,-1.38,0.18,-2.52,2.88
16.776,-0.77,-1.08,-1.87,2.29
16.785,-0.52,-2.22,-1.29,2.62
16.795,0.09,-3.08,-0.41,3.11
16.805,0.83,-3.76,0.25,3.86
16.815,0.75,-4.50,0.76,4.63
16.826,0.28,-5.09,1.03,5.20
16.835,0.24,-5.27,0.83,5.34
16.845,0.46,-5.27,0.75,5.34
16.855,0.46,-5.00,0.99,5.12
16.865,0.22,-4.52,1.08,4.66
16.875,-0.08,-4.01,0.71,4.07
16.885,-0.47,-3.37,0.25,3.41
16.895,-1.04,-2.42,0.13,2.64
16.905,-1.68,-1.38,0.27,2.19
16.915,-2.49,-0.31,0.26,2.52
16.925,-3.22,1.23,-0.05,3.44
16.935,-3.40,3.14,-0.30,4.64
16.945,-2.80,4.21,-0.42,5.08
16.955,-1.14,2.47,-0.22,2.73
16.965,0.08,0.63,0.35,0.73
16.975,0.79,-0.37,0.65,1.08
16.985,1.39,-1.14,0.58,1.89
16.995,1.74,-2.19,0.58,2.86
17.005,1.70,-3.02,0.13,3.47
17.015,1.35,-3.39,-0.51,3.69
17.025,0.72,-3.54,-0.60,3.66
17.035,-0.18,-3.51,-0.45,3.55
17.045,-0.95,-3.39,-0.60,3.58
17.055,-1.29,-3.24,-0.63,3.54
17.065,-1.21,-2.97,-0.25,3.22
17.075,-1.09,-2.44,0.45,2.71
17.085,-0.92,-1.79,0.86,2.19
17.095,-0.50,-1.18,0.74,1.48
17.105,-0.01,-0.83,0.48,0.96
17.115,0.14,-0.52,0.29,0.61
17.125,0.05,-0.01,-0.39,0.39
17.135,-0.05,0.46,-0.97,1.08
17.145,0.06,0.66,-1.34,1.50
17.155,0.31,0.91,-1.22,1.56
17.165,0.59,0.93,-1.13,1.58
17.175,0.89,0.66,-1.31,1.72
17.185,1.08,0.43,-1.47,1.87
17.195,1.00,0.21,-1.64,1.93
17.205,0.95,-0.33,-1.58,1.88
17.215,1.28,-0.73,-1.12,1.86
17.225,1.98,-0.98,-0.61,2.30
17.235,2.67,-1.05,-0.88,3.00
17.245,2.93,-1.16,-1.69,3.58
17.255,2.99,-1.53,-1.98,3.90
17.265,2.68,-1.80,-1.76,3.68
17.275,1.75,-1.38,-1.35,2.61
17.285,0.86,-0.49,-0.66,1.19
17.295,0.14,0.72,-0.09,0.74
17.305,-0.34,2.43,0.21,2.46
17.315,-1.03,4.35,0.21,4.48
17.325,-1.82,6.24,-0.06,6.50
17.335,-2.18,7.82,-0.34,8.13
17.345,-2.16,9.00,-0.24,9.26
17.354,-1.72,9.97,0.06,10.11
17.365,-1.23,10.25,0.39,10.33
17.374,-1.32,9.09,1.19,9.27
17.385,-1.95,7.36,1.99,7.87
17.394,-2.59,6.05,1.95,6.87
17.405,-3.01,4.97,1.19,5.93
17.414,-3.21,3.62,0.26,4.84
17.424,-3.11,1.60,0.44,3.53
17.434,-2.71,-0.30,1.01,2.91
17.444,-2.06,-1.74,1.23,2.97
17.454,-1.16,-2.74,1.18,3.21
17.464,0.22,-3.99,0.43,4.02
17.474,2.20,-6.77,-0.82,7.16
17.485,4.46,-8.37,-1.29,9.57
17.494,5.75,-8.76,-1.55,10.59
17.504,4.87,-8.01,-1.96,9.58
17.514,3.39,-6.17,-1.22,7.14
17.524,2.46,-1.89,-1.42,3.41
17.534,2.74,1.90,-1.99,3.88
17.544,3.96,5.21,-1.11,6.64
17.554,4.27,7.08,1.15,8.35
17.564,3.52,7.00,2.56,8.24
17.574,2.71,6.32,3.91,7.91
17.584,1.10,6.41,5.23,8.35
17.594,-1.58,4.55,5.81,7.55
17.604,-3.57,1.39,6.02,7.13
17.614,-4.54,-1.07,5.93,7.54
17.624,-4.50,-2.71,4.69,7.04
17.634,-3.24,-4.21,2.93,6.07
17.644,-1.20,-5.50,1.96,5.96
17.654,0.47,-6.58,1.30,6.72
17.664,1.17,-6.63,0.48,6.75
17.674,1.25,-5.92,-1.03,6.13
17.684,1.15,-5.39,-2.87,6.21
17.694,1.09,-5.01,-3.01,5.94
17.704,0.79,-4.67,-1.22,4.89
17.714,0.46,-3.97,0.47,4.03
17.724,0.16,-2.76,2.16,3.51
17.734,-0.12,-1.36,3.63,3.88
17.744,-0.28,0.24,3.72,3.73
17.754,-0.31,1.23,3.31,3.54
17.764,-0.11,1.43,2.26,2.68
17.774,0.20,1.34,0.74,1.55
17.784,0.40,1.03,-0.76,1.34
17.794,0.72,1.31,-2.24,2.69
17.804,0.56,2.00,-3.32,3.91
17.814,0.03,2.01,-3.82,4.32
17.824,-0.39,1.74,-4.16,4.52
17.834,-0.50,0.87,-3.88,4.01
17.844,-0.37,0.07,-2.64,2.66
17.854,0.01,0.17,-0.65,0.68
17.864,0.43,0.97,2.05,2.31
17.874,0.41,2.85,4.35,5.22
17.884,-0.30,5.86,4.41,7.34
17.894,0.38,9.18,0.69,9.21
17.904,0.94,12.08,-2.68,12.41
17.914,-1.35,12.97,-2.05,13.20
17.924,-4.28,9.03,0.06,9.99
17.934,-3.48,1.82,-0.80,4.01
17.944,-2.16,-0.74,-1.31,2.64
17.954,-1.71,-2.21,-1.26,3.06
17.964,-1.49,-2.69,-1.24,3.32
17.974,-0.90,-3.07,-0.62,3.26
17.984,-0.58,-3.36,-0.08,3.41
17.994,-0.82,-3.52,0.56,3.66
18.004,-1.12,-3.74,1.15,4.07
18.014,-1.06,-3.65,1.55,4.11
18.024,-0.56,-3.28,1.81,3.79
18.034,-0.02,-2.77,2.02,3.43
18.044,0.40,-2.53,1.85,3.16
18.054,0.57,-2.73,1.44,3.14
18.064,0.54,-2.71,1.10,2.97
18.073,0.44,-2.38,0.62,2.50
18.083,0.28,-1.64,-0.02,1.66
18.094,0.04,-0.61,-0.87,1.06
18.104,-0.30,0.59,-1.47,1.61
18.114,-0.39,1.85,-1.64,2.50
18.124,-0.06,2.86,-1.69,3.32
18.134,0.54,1.98,-1.61,2.61
18.144,0.69,0.04,-1.03,1.24
18.154,0.53,-1.18,-0.19,1.31
18.164,0.60,-1.78,0.20,1.89
18.173,0.62,-2.45,0.22,2.54
18.183,0.25,-3.19,0.14,3.20
18.193,-0.49,-3.77,-0.48,3.83
18.203,-1.17,-3.83,-0.96,4.12
18.213,-1.49,-3.48,-1.10,3.94
18.223,-1.43,-2.79,-1.04,3.30
18.233,-1.24,-1.96,-0.69,2.42
18.243,-1.03,-1.12,0.02,1.52
18.253,-0.77,-0.40,0.83,1.20
18.263,-0.29,0.20,1.01,1.07
18.273,0.38,0.43,0.88,1.05
18.283,0.92,-0.05,0.58,1.09
18.293,0.97,-0.79,0.26,1.28
18.303,0.68,-0.74,0.06,1.01
18.313,0.16,-0.51,-0.12,0.55
18.323,-0.45,-0.59,-0.43,0.86
18.333,-0.93,-0.73,-0.59,1.32
18.343,-1.10,-0.69,-0.75,1.50
18.353,-0.94,-0.53,-0.90,1.40
18.363,-0.83,-0.59,-0.59,1.17
18.373,-0.88,-1.18,-0.43,1.53
18.383,-0.79,-1.62,-0.60,1.90
18.393,-0.52,-2.17,-0.99,2.44
18.403,-0.17,-2.55,-1.32,2.87
18.413,0.29,-2.67,-1.45,3.05
18.423,0.95,-1.89,-1.08,2.38
18.433,1.85,-0.34,-1.39,2.34
18.443,2.37,1.51,-1.84,3.36
18.453,2.40,2.73,-1.79,4.05
18.463,2.00,2.46,-1.67,3.58
18.473,1.57,1.51,-1.74,2.78
18.483,0.94,0.40,-1.66,1.95
18.493,0.09,-0.63,-1.33,1.48
18.503,-0.47,-1.00,-0.98,1.47
18.513,-0.71,-0.63,-0.76,1.22
18.523,-0.41,0.29,-0.73,0.89
18.533,0.10,1.32,-0.90,1.61
18.543,0.48,1.72,-1.20,2.15
18.553,0.50,1.60,-1.16,2.04
18.563,0.59,1.36,-1.05,1.81
18.573,0.98,1.21,-1.02,1.86
18.583,1.25,1.63,-1.06,2.31
18.593,1.30,2.22,-0.93,2.74
18.603,1.59,2.94,-0.73,3.42
18.613,1.71,4.26,-0.38,4.60
18.623,1.24,5.54,0.25,5.69
18.633,0.42,6.40,0.76,6.46
18.643,-0.02,7.08,0.79,7.12
18.653,-0.43,7.82,0.70,7.87
18.663,-1.15,8.14,0.55,8.24
18.673,-1.95,7.47,0.01,7.72
18.683,-2.44,5.77,-0.46,6.29
18.693,-2.45,3.54,-0.90,4.39
18.703,-2.02,1.24,-0.45,2.41
18.712,-1.38,-0.32,0.17,1.43
18.723,-0.81,-1.09,0.35,1.40
18.732,-0.28,-1.54,0.49,1.64
18.743,0.36,-1.67,0.27,1.73
18.752,2.03,-3.09,-0.28,3.71
18.763,5.21,-6.48,-1.68,8.48
18.772,5.18,-7.41,0.41,9.05
18.783,4.00,-7.17,0.38,8.22
18.792,2.86,-6.78,0.63,7.39
18.802,1.64,-4.84,0.22,5.11
18.812,-0.05,-0.58,-0.18,0.61
18.822,-0.29,3.41,0.10,3.42
18.832,0.05,6.90,0.26,6.91
18.842,-0.43,8.67,1.02,8.74
18.852,-1.04,9.21,1.86,9.45
18.862,-0.97,9.40,3.02,9.92
18.872,-1.50,4.60,4.40,6.54
18.882,-2.58,0.45,4.91,5.57
18.892,-4.01,-2.04,4.69,6.50
18.902,-4.63,-3.74,4.05,7.19
18.912,-3.72,-4.97,3.14,6.95
18.922,-2.18,-5.95,1.76,6.57
18.932,-0.72,-6.17,0.63,6.24
18.942,-0.11,-4.70,-0.75,4.76
18.952,-0.04,-2.94,-2.87,4.11
18.962,0.43,-2.42,-4.31,4.96
18.972,1.01,-2.63,-3.54,4.53
18.982,1.37,-2.93,-1.48,3.56
18.992,1.47,-2.85,0.93,3.34
19.002,1.45,-2.37,2.96,4.06
19.012,1.53,-2.16,3.96,4.76
19.022,1.77,-2.43,3.84,4.88
19.032,1.94,-2.96,2.53,4.35
19.042,1.63,-3.03,1.42,3.72
19.052,1.21,-3.00,0.19,3.23
19.062,0.85,-3.29,-1.41,3.68
19.072,0.30,-3.73,-2.71,4.62
19.082,-0.62,-3.86,-3.85,5.48
19.092,-1.94,-2.98,-4.80,5.98
19.102,-3.47,-1.31,-4.98,6.21
19.112,-4.61,0.51,-3.75,5.97
19.122,-4.93,2.58,-1.81,5.85
19.132,-4.16,5.41,-0.04,6.82
19.142,-3.40,9.26,2.11,10.09
19.152,-1.27,14.19,3.94,14.78
19.162,3.16,17.87,3.02,18.40
19.173,5.34,18.59,1.51,19.40
19.183,1.97,15.94,0.77,16.08
19.192,-1.48,8.27,-0.89,8.45
19.202,-2.76,2.12,-2.14,4.08
19.212,-3.56,-1.23,-1.18,3.95
19.222,-3.64,-3.13,-0.29,4.81
19.232,-3.13,-3.40,0.06,4.62
19.242,-2.05,-3.11,0.13,3.73
19.252,-0.80,-3.48,0.12,3.57
19.262,0.60,-4.12,0.12,4.16
19.272,1.67,-4.58,0.13,4.88
19.282,2.24,-4.93,0.50,5.44
19.291,2.37,-5.21,1.21,5.85
19.302,2.23,-5.11,1.84,5.87
19.312,1.94,-4.73,1.93,5.47
19.322,1.68,-4.17,1.73,4.82
19.332,1.69,-3.48,1.39,4.11
19.342,1.72,-2.43,0.87,3.11
19.352,1.43,-1.09,0.16,1.81
19.362,0.69,0.63,-0.45,1.04
19.372,-0.58,3.07,-0.46,3.15
19.382,-2.09,5.44,0.16,5.83
19.392,-3.16,6.86,0.83,7.60
19.402,-2.63,4.28,1.11,5.14
19.412,-1.48,0.09,1.20,1.91
19.421,-0.48,-1.54,1.28,2.06
19.432,0.35,-2.89,1.60,3.32
19.441,0.57,-4.29,1.56,4.60
19.452,0.33,-5.17,0.74,5.23
19.461,-0.06,-5.56,-0.53,5.59
19.471,-0.43,-5.48,-1.27,5.64
19.482,-0.90,-5.31,-1.40,5.57
19.492,-1.22,-5.00,-1.83,5.47
19.502,-1.26,-4.46,-2.19,5.12
19.511,-1.06,-3.47,-1.94,4.12
19.521,-0.73,-2.14,-1.44,2.69
19.531,-0.65,-1.44,-1.08,1.91
19.541,-0.47,-0.97,-0.92,1.41
19.551,0.10,-0.59,-1.11,1.26
19.561,0.46,-0.37,-0.96,1.13
19.571,0.48,-0.07,-0.94,1.06
19.581,0.27,0.15,-1.44,1.48
19.591,0.20,0.26,-1.77,1.80
19.601,0.31,0.48,-1.82,1.91
19.611,0.33,0.40,-1.79,1.86
19.621,0.47,0.10,-1.90,1.96
19.631,0.86,-0.08,-1.86,2.05
19.641,1.20,-0.04,-1.76,2.13
19.651,1.60,0.15,-1.56,2.24
19.661,1.79,0.44,-1.35,2.29
19.671,2.01,0.87,-1.52,2.67
19.681,2.29,1.41,-1.33,2.99
19.691,2.27,2.07,-0.78,3.17
19.701,1.54,3.01,-0.22,3.39
19.711,0.58,3.89,0.31,3.94
19.721,-0.43,4.60,0.57,4.66
19.731,-1.10,5.26,0.73,5.42
19.741,-1.34,5.88,0.99,6.11
19.751,-0.95,6.37,1.53,6.63
19.761,-0.47,6.38,1.81,6.65
19.771,-0.70,5.93,2.00,6.30
19.781,-1.02,5.10,1.86,5.53
19.791,-1.06,4.04,0.96,4.29
19.801,-1.18,2.94,-0.22,3.18
19.811,-1.44,1.92,-1.15,2.66
19.821,-1.66,0.67,-1.21,2.16
19.831,-1.74,-0.52,-1.12,2.14
19.841,-1.61,-1.68,-0.83,2.47
19.851,-0.94,-2.55,-0.37,2.75
19.861,0.33,-2.99,-0.43,3.04
19.871,2.02,-4.19,-0.79,4.72
19.881,4.29,-6.24,-1.37,7.69
19.891,5.31,-7.31,0.10,9.04
19.901,4.93,-6.85,0.76,8.47
19.911,3.77,-5.09,1.03,6.42
19.921,2.80,-2.14,1.13,3.70
19.931,1.95,0.67,0.90,2.25
19.941,1.16,3.57,0.85,3.85
19.951,0.34,6.52,0.62,6.56
19.961,-0.34,8.61,-0.17,8.62
19.971,-0.99,8.87,0.14,8.92
19.981,-1.95,7.82,2.28,8.38
19.991,-3.08,5.91,4.07,7.81
20.001,-4.15,3.22,4.65,7.02
20.011,-4.93,0.90,4.77,6.92
20.021,-5.03,-0.81,4.35,6.70
20.031,-4.23,-2.24,3.50,5.93
20.041,-2.76,-3.02,2.67,4.89
20.051,-0.94,-3.26,1.86,3.87
20.061,0.69,-3.64,1.04,3.85
20.070,1.80,-3.94,0.20,4.34
20.081,2.12,-3.47,-1.13,4.22
20.091,1.95,-2.37,-2.87,4.20
20.101,1.82,-2.04,-3.65,4.56
20.111,1.71,-1.95,-2.51,3.61
20.121,1.46,-1.69,-0.33,2.26
20.130,1.13,-1.48,1.77,2.57
20.140,0.69,-1.29,3.51,3.80
20.150,0.22,-1.14,4.73,4.87
20.160,0.08,-0.84,4.28,4.36
20.170,-0.03,-1.02,3.35,3.51
20.181,-0.03,-2.15,2.46,3.27
20.190,-0.10,-3.22,1.53,3.56
20.200,-0.38,-3.62,0.66,3.70
20.210,-0.34,-3.64,-0.46,3.69
20.220,0.07,-4.64,-1.31,4.82
20.230,0.17,-5.60,-1.64,5.84
20.240,-0.71,-5.07,-1.94,5.47
20.250,-2.11,-3.31,-2.36,4.58
20.260,-3.11,-1.18,-2.77,4.33
20.270,-3.23,0.18,-3.21,4.56
20.280,-2.64,0.65,-2.96,4.02
20.290,-1.33,1.28,-1.95,2.68
20.300,0.74,2.74,-1.07,3.03
20.310,2.85,4.37,-0.78,5.27
20.320,4.03,5.98,-0.03,7.21
20.330,4.20,8.74,0.91,9.74
20.340,4.07,11.72,1.19,12.47
20.351,4.20,12.84,0.11,13.51
20.362,3.59,12.05,-1.27,12.64
20.371,1.45,10.49,-1.15,10.65
20.380,-0.53,7.74,-1.15,7.84
20.390,-0.92,3.44,-1.78,3.98
20.400,-1.08,1.46,-1.69,2.48
20.410,-1.42,0.79,-1.89,2.49
20.420,-2.13,0.48,-1.53,2.67
20.430,-2.58,-0.11,-0.82,2.71
20.440,-2.56,-1.22,-0.19,2.84
20.450,-2.11,-2.36,0.48,3.21
20.460,-1.48,-3.17,1.10,3.67
20.470,-1.03,-3.47,1.48,3.91
20.480,-0.68,-3.71,1.29,3.99
20.490,-0.30,-4.40,0.94,4.51
20.500,0.10,-5.16,0.66,5.20
20.510,0.46,-5.63,0.49,5.67
20.520,0.72,-5.77,0.27,5.82
20.530,1.01,-5.19,0.07,5.29
20.540,1.42,-3.81,-0.28,4.07
20.550,2.00,-1.97,-0.80,2.92
20.560,2.64,-0.15,-1.25,2.92
20.570,2.97,1.29,-1.51,3.58
20.580,2.85,1.93,-1.44,3.74
20.590,2.21,1.39,-1.08,2.82
20.600,1.21,0.29,-0.51,1.35
20.610,0.42,-0.48,-0.09,0.64
20.620,-0.27,-0.67,0.30,0.78
20.630,-0.98,0.05,0.74,1.23
20.640,-1.72,0.78,1.14,2.20
20.650,-2.26,1.12,1.14,2.77
20.660,-2.30,1.07,0.89,2.69
20.670,-1.63,0.38,0.29,1.70
20.680,-0.35,-0.72,-0.06,0.80
20.690,0.66,-1.44,-0.43,1.64
20.700,0.77,-2.04,-0.37,2.21
20.710,0.01,-2.74,-0.29,2.76
20.720,-1.07,-3.66,-0.23,3.82
20.729,-1.54,-4.21,-0.01,4.48
20.740,-1.60,-4.31,0.05,4.60
20.750,-1.42,-4.04,-0.24,4.29
20.760,-1.27,-3.47,-0.41,3.72
20.770,-1.42,-2.50,-0.11,2.88
20.780,-1.80,-1.21,0.53,2.23
20.789,-2.27,0.40,0.87,2.46
20.799,-2.59,1.87,0.13,3.20
20.810,-2.59,2.65,-0.84,3.80
20.819,-2.39,2.23,-1.07,3.44
20.830,-1.53,1.50,-1.38,2.55
20.839,-0.64,0.23,-0.99,1.20
20.849,0.06,-0.99,-1.02,1.42
20.859,0.59,-1.48,-1.42,2.13
20.869,1.01,-1.74,-1.57,2.55
20.879,1.49,-1.90,-1.76,2.99
20.889,2.06,-2.18,-2.03,3.62
20.899,2.39,-2.32,-1.74,3.76
20.909,2.57,-1.99,-1.57,3.61
20.919,2.46,-1.60,-1.53,3.31
20.929,2.04,-1.30,-1.26,2.73
20.939,1.47,-0.74,-0.80,1.83
20.949,0.65,0.33,-0.37,0.82
20.959,-0.05,1.81,-0.09,1.81
20.969,-0.39,3.32,0.20,3.34
20.979,-0.80,4.81,0.31,4.88
20.989,-1.30,6.39,0.35,6.53
20.999,-1.31,7.63,0.69,7.77
21.009,-0.63,8.29,1.25,8.41
21.019,-0.16,9.10,1.60,9.24
21.029,-0.19,10.02,1.67,10.16
21.039,-0.40,9.85,1.39,9.96
21.049,-0.72,7.17,0.93,7.27
21.059,-1.04,3.66,0.45,3.84
21.069,-1.50,1.46,0.51,2.15
21.079,-1.97,0.15,0.56,2.05
21.089,-2.09,-0.84,0.32,2.28
21.099,-1.11,-2.54,-0.37,2.80
21.109,1.30,-5.90,-1.32,6.18
21.119,3.26,-7.15,-0.62,7.88
21.129,3.58,-7.68,-0.28,8.48
21.139,3.23,-8.13,-1.05,8.81
21.149,3.31,-7.99,-0.61,8.67
21.159,3.40,-5.47,-0.63,6.47
21.169,2.72,-2.39,-1.68,4.00
21.179,1.70,0.50,-1.37,2.24
21.189,1.03,4.34,0.02,4.46
21.199,1.08,8.67,0.13,8.74
21.209,1.04,10.51,-0.82,10.59
21.219,0.03,8.81,-0.22,8.82
21.229,-1.74,8.02,2.28,8.52
21.239,-3.50,5.56,5.14,8.35
21.249,-5.31,2.03,6.48,8.62
21.259,-6.14,-0.98,5.93,8.59
21.269,-5.64,-2.66,4.77,7.85
21.279,-3.92,-3.61,3.31,6.27
21.289,-1.68,-4.37,2.11,5.14
21.299,0.22,-4.56,1.25,4.73
21.309,0.82,-3.62,0.47,3.74
21.319,0.48,-3.23,-0.83,3.36
21.329,0.33,-3.71,-2.30,4.38
21.339,0.52,-3.97,-3.26,5.16
21.348,0.57,-3.71,-2.86,4.72
21.359,0.49,-3.05,-1.16,3.30
21.368,0.34,-2.40,1.14,2.68
21.379,0.36,-1.82,3.37,3.85
21.389,0.61,-1.30,4.45,4.67
21.399,0.69,-0.98,4.27,4.43
21.409,0.58,-1.36,3.24,3.56
21.419,0.34,-1.89,2.01,2.77
21.429,0.02,-2.20,1.32,2.57
21.439,-0.15,-2.47,0.52,2.53
21.449,-1.72,-3.05,-1.76,3.92
21.459,-2.74,-4.70,-4.10,6.81
21.469,1.52,-2.73,0.60,3.18
21.479,2.16,-0.96,0.39,2.39
21.488,1.15,0.09,-0.85,1.43
21.499,-0.21,1.77,-1.20,2.15
21.508,-1.13,3.43,-2.23,4.25
21.519,-1.13,5.27,-1.94,5.73
21.528,-0.41,7.59,0.41,7.61
21.538,0.64,10.00,2.42,10.31
21.548,3.48,11.16,2.26,11.91
21.559,6.66,10.63,1.62,12.65
21.568,5.73,8.38,0.46,10.16
21.578,0.56,5.87,-1.28,6.04
21.588,-3.10,4.72,-2.48,6.17
21.598,-4.22,3.08,-3.20,6.13
21.608,-3.61,-1.18,-4.35,5.77
21.618,-2.93,-1.28,-3.44,4.70
21.628,-1.61,0.69,-1.71,2.45
21.638,0.46,1.25,-0.99,1.66
21.648,4.11,1.36,-2.24,4.88
21.658,2.04,-0.33,2.67,3.38
21.668,-0.50,-3.50,5.04,6.16
21.678,-0.90,-4.59,1.85,5.03
21.688,-0.91,-4.61,1.16,4.84
21.698,-0.43,-4.59,1.59,4.88
21.708,-0.11,-4.56,1.53,4.81
21.718,-0.29,-4.60,1.03,4.73
21.728,-0.79,-4.69,0.45,4.78
21.738,-1.32,-4.74,0.13,4.92
21.748,-1.77,-3.83,0.32,4.23
21.758,-1.88,-2.92,0.37,3.49
21.768,-1.27,-2.76,0.11,3.04
21.778,-0.25,-2.76,0.12,2.77
21.788,0.27,-2.27,0.21,2.30
21.798,0.31,-1.51,0.12,1.54
21.808,0.33,-0.56,0.28,0.71
21.818,0.78,0.30,0.50,0.97
21.828,1.43,0.70,0.51,1.67
21.838,1.70,0.43,0.60,1.85
21.848,1.16,-0.42,0.51,1.33
21.858,0.45,-0.91,0.07,1.02
21.868,0.19,-1.43,0.02,1.44
21.878,-0.08,-1.88,0.21,1.90
21.888,-0.41,-1.78,0.00,1.83
21.898,-0.66,-1.74,-0.37,1.90
21.908,-0.83,-1.49,-0.50,1.78
21.918,-1.08,-1.18,-0.52,1.69
21.928,-1.19,-0.86,0.01,1.46
21.938,-1.10,-0.38,0.38,1.23
21.948,-0.69,-0.69,0.44,1.07
21.958,-0.29,-1.45,-0.03,1.48
21.968,-0.34,-0.67,-0.45,0.88
21.978,-0.24,-0.15,-0.55,0.62
21.988,-0.29,0.28,-0.95,1.03
21.998,-0.65,0.77,-1.33,1.67
22.008,-0.71,0.78,-1.34,1.70
22.018,-0.39,0.61,-1.34,1.52
22.028,-0.46,0.61,-1.96,2.11
22.038,-1.04,0.45,-2.42,2.67
22.048,-1.52,-0.10,-2.22,2.69
22.058,-1.21,-0.67,-2.08,2.50
22.067,-0.43,-0.96,-1.64,1.94
22.078,0.35,-1.01,-1.45,1.80
22.087,0.99,-0.93,-1.34,1.90
22.098,1.18,-0.59,-1.18,1.77
22.108,1.29,-0.32,-1.15,1.76
22.118,1.40,-0.31,-1.05,1.78
22.128,1.36,-0.37,-0.82,1.63
22.138,1.35,-0.42,-0.84,1.65
22.147,1.39,-0.51,-1.23,1.93
22.158,1.29,-0.61,-1.70,2.22
22.168,1.18,-0.58,-1.86,2.28
22.177,1.03,-0.56,-1.63,2.01
22.187,0.45,0.00,-0.92,1.02
22.197,-0.06,0.88,-0.14,0.90
22.207,-0.79,2.30,0.18,2.43
22.218,-1.29,3.67,0.12,3.90
22.227,-1.42,4.89,0.41,5.11
22.237,-1.30,7.62,1.04,7.80
22.247,-0.94,10.05,2.25,10.35
22.257,-0.36,11.03,3.23,11.50
22.268,-0.07,10.27,3.57,10.87
22.278,-0.60,8.83,3.53,9.53
22.287,-1.96,7.18,2.87,7.97
22.297,-3.29,5.52,1.20,6.54
22.307,-4.09,4.05,-0.52,5.78
22.317,-3.83,0.27,-0.92,3.95
22.327,-2.44,-4.62,-0.41,5.24
22.337,-1.61,-4.84,-0.39,5.12
22.347,-0.51,-4.03,0.17,4.06
22.357,0.87,-3.49,0.26,3.61
22.367,2.59,-4.53,-0.24,5.23
22.377,4.97,-6.81,-2.32,8.74
22.387,6.38,-5.82,-2.86,9.10
22.397,6.12,-3.80,-2.07,7.49
22.407,5.12,-2.87,-0.33,5.88
22.417,4.48,-2.64,-1.55,5.42
22.427,4.16,-1.16,-3.69,5.69
22.437,3.19,3.24,-2.07,4.99
22.447,2.61,6.35,0.71,6.90
22.457,2.54,6.38,2.31,7.25
22.467,1.24,5.20,3.59,6.44
22.477,-1.89,3.44,5.69,6.91
22.487,-5.21,2.64,5.84,8.26
22.497,-5.85,2.12,4.82,7.87
22.507,-4.80,-4.79,3.38,7.57
22.517,-3.58,-6.74,3.67,8.46
22.527,-2.57,-2.82,3.78,5.37
22.537,-1.95,-0.81,2.59,3.35
22.547,-1.45,-0.85,1.98,2.60
22.557,-0.68,-0.21,1.59,1.74
22.567,0.23,0.19,0.08,0.31
22.577,0.80,0.22,-1.40,1.62
22.587,1.03,0.18,-3.59,3.74
22.597,1.35,-1.25,-5.11,5.43
22.607,1.48,-2.46,-2.75,3.98
22.617,1.34,-2.25,0.83,2.75
22.627,1.72,-1.76,2.97,3.85
22.637,1.66,-1.65,5.00,5.52
22.647,1.54,-2.12,4.84,5.50
22.657,0.84,-2.05,3.30,3.97
22.667,0.20,-2.31,1.61,2.82
22.677,-0.18,-1.89,1.10,2.19
22.687,0.05,-1.72,-0.32,1.75
22.697,-0.29,-0.91,-0.40,1.04
22.706,-0.77,0.34,-0.90,1.24
22.717,-0.81,0.89,-0.62,1.35
22.727,0.88,-1.90,-2.52,3.27
22.737,0.47,-2.45,-3.92,4.64
22.747,-0.17,-2.84,-4.18,5.05
22.757,-0.06,-1.84,-3.32,3.80
22.767,0.63,-0.65,-1.58,1.82
22.777,1.48,0.93,0.85,1.95
22.787,2.31,3.08,2.21,4.44
22.796,3.07,4.85,0.41,5.76
22.806,2.46,6.49,-1.67,7.14
22.816,0.67,7.68,-2.08,7.99
22.827,-2.06,8.27,-1.41,8.63
22.836,-4.31,7.61,-0.95,8.79
22.846,-3.28,4.80,-1.81,6.09
22.856,-2.36,2.21,-0.97,3.37
22.866,-3.07,2.55,-0.94,4.10
22.876,-2.74,1.91,-0.57,3.39
22.886,-1.72,1.13,0.28,2.07
22.897,-1.05,1.31,0.94,1.92
22.906,-1.05,1.18,1.65,2.29
22.916,-1.00,0.78,1.93,2.31
22.926,-0.20,0.24,1.91,1.93
22.936,0.27,-0.66,1.93,2.06
22.946,0.15,-1.84,1.68,2.50
22.956,-0.30,-2.62,1.29,2.94
22.966,-0.59,-2.66,0.83,2.84
22.976,-0.78,-2.29,0.76,2.54
22.986,-0.61,-1.70,1.07,2.10
22.996,-1.06,-1.15,1.04,1.88
23.006,-1.01,-1.26,1.16,1.99
23.016,-0.87,-0.97,0.95,1.62
23.026,-0.68,-0.49,0.06,0.84
23.036,-0.12,0.11,-0.23,0.28
23.046,0.11,1.03,0.18,1.05
23.056,0.22,1.30,-0.60,1.45
23.066,0.46,0.83,-0.58,1.12
23.076,0.14,0.61,-0.25,0.68
23.086,-0.25,0.17,-0.66,0.73
23.096,-0.36,-0.62,-0.44,0.84
23.106,0.00,-1.10,-0.03,1.10
23.116,0.41,-1.41,0.17,1.48
23.126,0.38,-0.72,0.36,0.89
23.136,0.40,-0.79,0.50,1.02
23.146,0.59,-2.24,-0.01,2.32
23.156,0.66,-1.56,-0.13,1.70
23.166,0.57,-0.72,-0.03,0.91
23.176,0.29,-0.04,-0.23,0.37
23.186,0.31,0.33,-0.78,0.90
23.196,0.27,0.73,-1.11,1.36
23.206,-0.30,0.86,-0.38,0.98
23.216,-0.47,0.04,0.36,0.59
23.226,-0.66,-0.60,0.45,1.00
23.236,-0.56,-0.34,0.52,0.84
23.246,-0.14,-0.18,0.13,0.26
23.256,0.04,-0.09,-0.36,0.37
23.266,-0.10,-0.10,-0.51,0.53
23.276,-0.13,-0.43,-0.37,0.58
23.286,-0.10,-0.44,-0.56,0.72
23.296,-0.01,-0.09,-1.15,1.15
23.306,0.08,0.09,-1.59,1.59
23.316,0.04,0.07,-1.55,1.55
23.326,0.06,0.10,-1.21,1.22
23.336,-0.01,-0.18,-1.13,1.15
23.346,-0.17,-0.83,-1.15,1.43
23.356,-0.19,-1.26,-0.48,1.36
23.366,-0.07,-1.45,0.18,1.47
23.376,0.13,-1.86,0.18,1.88
23.386,0.29,-1.65,-0.21,1.68
23.396,0.37,-0.98,-0.72,1.27
23.406,0.34,-0.71,-1.16,1.40
23.416,0.41,-0.82,-1.57,1.82
23.426,0.59,-1.05,-1.48,1.91
23.436,0.63,-1.15,-1.29,1.84
23.446,0.76,-1.12,-1.60,2.10
23.456,0.82,-0.85,-1.71,2.07
23.465,0.64,-0.55,-1.74,1.94
23.475,0.47,-0.31,-2.23,2.30
23.485,0.24,0.23,-2.56,2.58
23.496,0.08,0.51,-3.30,3.34
23.505,0.28,0.40,-3.67,3.70
23.516,0.72,-0.10,-2.49,2.59
23.525,0.90,0.11,-1.34,1.62
23.536,0.22,1.25,-1.75,2.16
23.545,-0.20,1.55,-1.00,1.86
23.555,-0.17,1.60,-0.71,1.76
23.565,-0.52,2.07,-2.34,3.17
23.576,-0.51,1.62,-2.87,3.34
23.585,0.04,1.60,-3.11,3.50
23.596,0.48,2.58,-2.88,3.90
23.605,1.00,3.38,-2.45,4.29
23.615,1.43,4.03,-2.54,4.97
23.625,1.46,4.92,-2.73,5.81
23.635,1.20,5.52,-3.01,6.40
23.645,0.56,5.98,-3.46,6.93
23.655,-0.47,5.98,-3.26,6.82
23.665,-1.53,5.33,-2.99,6.30
23.675,-2.54,4.59,-2.49,5.81
23.685,-3.25,3.59,-1.26,5.01
23.695,-3.38,3.33,0.99,4.85
23.705,-3.34,3.31,2.25,5.22
23.715,-3.61,3.85,2.84,5.99
23.725,-4.03,4.36,3.43,6.86
23.735,-4.57,4.20,3.91,7.33
23.745,-4.96,3.93,5.10,8.12
23.755,-4.93,3.61,6.46,8.89
23.765,-4.66,2.99,6.93,8.87
23.775,-4.40,2.71,7.13,8.81
23.785,-4.16,2.78,7.04,8.64
23.795,-4.00,2.81,6.96,8.50
23.805,-3.94,2.71,6.99,8.47
23.815,-3.75,2.32,7.51,8.71
23.825,-3.48,1.77,7.88,8.79
23.835,-3.18,1.06,8.00,8.67
23.845,-2.91,0.14,8.18,8.68
23.855,-2.64,-0.44,8.35,8.77
23.865,-2.21,-0.59,8.19,8.50
23.875,-2.01,-0.13,7.84,8.09
23.885,-1.63,0.15,7.05,7.24
23.895,-1.30,0.29,6.17,6.31
23.905,-0.99,0.53,6.48,6.57
23.915,-0.82,0.42,7.06,7.12
23.925,-0.68,0.68,7.40,7.46
23.935,-0.47,0.85,6.93,6.99
23.945,-0.30,1.43,6.01,6.18
23.955,-0.05,2.06,5.06,5.46
23.965,0.26,2.68,4.46,5.21
23.975,0.58,3.14,4.22,5.29
23.985,1.09,3.50,3.88,5.34
23.995,1.87,4.08,3.59,5.75
24.005,2.81,4.58,3.41,6.37
24.015,3.75,5.29,3.57,7.41
24.025,4.68,6.03,3.62,8.45
24.035,5.44,6.49,3.36,9.12
24.045,5.88,6.60,3.11,9.37
24.055,6.06,6.48,3.13,9.41
24.065,6.17,6.31,3.12,9.36
24.075,6.14,6.00,3.09,9.12
24.085,6.14,5.60,2.93,8.82
24.095,6.25,5.02,2.78,8.49
24.105,6.41,4.55,3.32,8.53
24.114,6.74,3.99,3.88,8.74
24.124,7.08,3.79,4.18,9.05
24.135,7.29,3.46,3.94,8.98
24.145,7.42,2.95,3.48,8.71
24.155,7.42,2.55,2.77,8.32
24.164,7.23,2.19,2.31,7.90
24.174,6.88,2.14,2.18,7.52
24.184,6.72,1.65,1.86,7.17
24.194,6.55,1.27,2.08,6.99
24.204,6.31,1.21,2.65,6.95
24.214,6.11,0.85,3.15,6.93
24.224,5.92,0.42,3.70,6.99
24.234,5.74,0.24,3.95,6.97
24.244,5.66,0.16,3.71,6.76
24.254,5.50,0.48,3.13,6.34
24.264,5.40,1.06,2.73,6.14
24.275,5.20,1.16,2.18,5.76
24.284,4.88,0.88,1.59,5.21
24.294,4.54,0.72,1.31,4.78
24.304,4.30,0.81,1.54,4.64
24.314,4.21,0.65,1.51,4.52
24.324,4.13,0.67,1.34,4.40
24.334,4.03,0.88,1.06,4.26
24.344,3.68,1.11,0.70,3.91
24.354,3.44,1.15,0.23,3.64
24.364,3.24,1.23,-0.12,3.47
24.374,3.12,1.84,-0.25,3.63
24.384,2.79,1.97,-0.67,3.48
24.394,2.47,1.31,-1.09,3.00
24.404,2.01,1.02,-1.57,2.75
24.414,1.52,0.82,-2.16,2.76
24.424,1.17,0.61,-2.42,2.75
24.434,1.00,0.18,-2.22,2.45
24.444,0.91,-0.32,-1.99,2.21
24.454,3.04,0.08,-2.33,3.83
24.464,6.50,1.72,-2.53,7.19
24.474,4.35,0.89,-1.60,4.72
24.484,2.47,-0.52,-0.58,2.58
24.494,1.16,-1.32,0.71,1.89
24.504,0.59,-1.50,1.18,2.00
24.514,0.26,-1.27,0.88,1.56
24.524,0.34,-1.40,0.58,1.55
24.534,0.66,-1.38,0.44,1.60
24.544,1.22,-0.54,0.37,1.39
24.554,1.18,-0.15,0.69,1.37
24.564,1.26,-0.51,-0.24,1.38
24.574,1.51,-0.52,-1.07,1.92
24.584,1.55,-0.00,-1.00,1.84
24.594,1.43,0.43,-0.53,1.59
24.604,1.03,0.28,0.16,1.08
24.614,0.60,-0.38,1.60,1.75
24.624,0.45,-0.91,2.61,2.80
24.634,0.43,-1.63,2.48,3.00
24.644,0.89,-1.91,2.28,3.11
24.654,1.79,-1.57,2.01,3.12
24.664,2.35,-1.09,1.90,3.21
24.674,2.31,-1.04,1.61,3.00
24.684,1.90,-1.43,1.07,2.61
24.694,1.70,-1.35,0.71,2.28
24.704,1.76,-0.84,0.80,2.11
24.714,1.23,-0.78,1.19,1.88
24.724,0.49,-1.07,1.39,1.82
24.734,0.12,-1.26,1.55,2.00
24.744,0.14,-1.39,1.49,2.04
24.753,0.16,-1.62,1.53,2.23
24.763,0.12,-1.69,1.76,2.45
24.773,0.67,-1.74,1.87,2.64
24.783,1.12,-1.95,2.00,3.01
24.793,1.35,-2.41,2.04,3.43
24.804,1.76,-2.62,2.22,3.86
24.814,1.96,-2.65,2.74,4.28
24.823,1.75,-2.72,3.25,4.59
24.834,1.62,-2.63,3.38,4.58
24.843,1.47,-2.03,0.78,2.63
24.854,1.65,-0.46,-0.94,1.95
24.863,1.64,-0.28,-0.29,1.68
24.873,0.92,-1.25,1.12,1.91
24.883,1.10,-1.36,1.68,2.43
24.893,1.27,-1.38,2.05,2.78
24.903,1.19,-1.45,2.93,3.48
24.914,1.36,-1.43,3.21,3.77
24.923,1.24,-1.36,3.06,3.57
24.935,1.14,-1.42,1.95,2.67
