time,ax,ay,az,atotal
0.000,-0.44,0.86,0.13,0.97
0.010,-0.39,0.81,-0.02,0.90
0.020,-0.27,0.51,0.12,0.59
0.030,0.00,-0.00,-0.08,0.08
0.040,0.10,-0.37,0.15,0.41
0.050,0.23,-0.56,0.55,0.82
0.060,0.43,-0.73,0.44,0.95
0.070,0.34,-0.66,0.08,0.75
0.080,-0.15,-0.28,-0.11,0.34
0.090,-0.44,0.02,-0.41,0.60
0.100,-0.50,0.18,-0.72,0.90
0.110,-0.57,0.45,-0.78,1.07
0.120,-0.45,0.56,-0.55,0.91
0.130,-0.17,0.31,-0.26,0.44
0.140,-0.05,-0.19,0.10,0.23
0.150,0.33,-0.56,0.67,0.94
0.160,0.73,-0.59,0.91,1.31
0.169,0.64,-0.42,0.89,1.18
0.180,0.32,-0.30,0.41,0.60
0.190,-0.03,-0.37,-0.08,0.38
0.200,-0.38,-0.29,-0.55,0.73
0.209,-0.66,-0.05,-1.08,1.27
0.220,-0.83,0.27,-1.42,1.66
0.229,-0.79,0.71,-1.70,2.01
0.239,-0.76,0.80,-1.75,2.07
0.249,-0.31,0.39,-1.97,2.03
0.260,0.75,-0.10,-1.53,1.71
0.270,1.61,0.13,-0.77,1.79
0.279,2.18,0.19,0.24,2.20
0.289,2.42,0.19,0.60,2.50
0.299,1.89,0.17,0.44,1.94
0.309,1.09,0.29,-0.13,1.13
0.319,0.38,0.48,-0.90,1.09
0.329,-0.11,0.49,-1.53,1.61
0.339,-0.54,0.42,-2.09,2.20
0.349,-1.10,0.63,-2.41,2.72
0.359,-1.03,0.97,-3.38,3.66
0.369,-0.66,0.80,-4.07,4.21
0.379,-0.11,0.75,-3.83,3.91
0.390,0.77,0.66,-3.32,3.47
0.399,1.37,-0.03,-2.58,2.92
0.409,2.19,-0.73,-3.37,4.08
0.419,2.90,-0.96,-4.05,5.08
0.429,2.91,-0.26,-4.58,5.43
0.439,2.69,0.25,-5.24,5.89
0.449,2.27,-0.07,-5.57,6.02
0.459,2.26,-0.11,-6.30,6.69
0.469,2.75,-0.05,-6.09,6.68
0.479,2.95,-0.62,-5.59,6.35
0.489,3.15,-1.71,-3.56,5.05
0.499,3.45,-1.60,-2.43,4.51
0.509,2.97,-0.92,-2.47,3.97
0.519,1.79,0.50,-3.00,3.53
0.529,0.18,2.12,-2.93,3.62
0.539,-1.01,1.24,-3.66,3.99
0.549,-2.25,0.81,-4.30,4.92
0.559,-3.87,1.69,-3.49,5.47
0.569,-5.34,2.71,-2.44,6.47
0.579,-7.26,4.25,-1.36,8.52
0.589,-14.67,4.04,-2.75,15.46
0.599,-25.35,0.17,-1.94,25.43
0.612,-25.25,-3.73,6.59,26.36
0.619,-13.49,-0.81,18.41,22.83
0.629,-4.97,0.88,14.35,15.21
0.639,-3.44,3.36,9.52,10.67
0.649,-1.21,6.82,5.72,8.99
0.659,0.49,7.85,1.58,8.02
0.669,0.66,8.55,-0.43,8.59
0.679,0.27,8.94,0.04,8.94
0.689,0.51,8.13,1.03,8.21
0.699,0.79,6.74,1.26,6.90
0.709,0.46,5.49,0.83,5.57
0.719,0.28,3.86,0.28,3.88
0.729,0.06,2.77,-1.27,3.05
0.739,-0.83,3.40,-1.57,3.83
0.749,-1.36,3.19,-2.23,4.12
0.759,-2.04,2.55,-1.88,3.77
0.769,-2.55,1.95,-1.18,3.42
0.779,-2.93,2.74,-0.36,4.02
0.789,-3.03,1.09,0.74,3.30
0.799,-1.97,0.09,0.67,2.08
0.809,-0.92,3.08,1.29,3.47
0.819,-1.47,0.53,2.28,2.76
0.829,-1.31,-4.05,3.83,5.73
0.839,0.94,-2.96,2.95,4.28
0.848,0.07,-4.75,3.17,5.71
0.859,0.67,-3.71,0.57,3.81
0.869,-1.12,-4.93,2.11,5.48
0.879,-1.97,-5.08,-1.56,5.67
0.889,-1.33,-2.32,-2.33,3.55
0.899,-3.16,-5.70,-1.41,6.67
0.909,-4.42,-7.25,-0.86,8.53
0.919,-2.93,-7.72,0.67,8.29
0.928,-3.07,-7.41,3.04,8.58
0.939,-2.13,-7.90,3.83,9.04
0.948,-0.29,-8.13,3.60,8.90
0.958,0.36,-8.36,4.58,9.54
0.969,0.40,-8.36,3.87,9.22
0.979,-0.19,-4.32,2.94,5.23
0.988,-1.17,-1.12,2.06,2.62
0.999,-1.45,-0.16,1.68,2.23
1.008,-0.89,-0.51,2.52,2.72
1.018,0.28,-2.53,3.52,4.35
1.028,1.30,-4.21,3.95,5.92
1.039,1.40,-4.71,3.11,5.81
1.048,-0.44,-1.94,2.47,3.18
1.058,-0.96,-3.23,-1.52,3.70
1.068,-0.86,-2.69,-0.37,2.84
1.078,-0.10,-2.12,-0.77,2.26
1.088,1.72,-2.44,-1.43,3.31
1.098,3.76,-3.65,-0.11,5.24
1.108,5.08,-2.79,1.24,5.93
1.118,5.50,-4.25,2.50,7.39
1.128,4.38,-5.33,1.23,7.01
1.138,0.04,-2.93,-2.61,3.92
1.148,-6.71,4.06,-5.62,9.65
1.158,-11.05,10.18,-5.35,15.94
1.168,-9.70,9.44,-1.66,13.64
1.178,-5.43,6.32,2.83,8.81
1.188,-1.40,2.75,5.77,6.54
1.198,-0.26,0.19,7.09,7.10
1.208,-1.36,-1.58,6.09,6.44
1.218,-3.40,-3.27,2.47,5.32
1.228,-5.41,-3.35,-1.88,6.64
1.238,-6.21,-2.64,-4.80,8.28
1.248,-4.86,-0.62,-6.77,8.35
1.258,-1.29,4.02,-5.26,6.75
1.268,3.64,6.49,-1.02,7.51
1.278,7.04,5.49,2.58,9.29
1.288,6.66,1.28,3.75,7.75
1.298,4.52,-1.60,3.02,5.67
1.308,2.23,-1.07,2.60,3.59
1.318,3.20,-0.38,1.58,3.58
1.328,4.48,-2.64,-1.44,5.39
1.338,2.29,-2.18,-1.31,3.43
1.348,-1.33,0.68,-0.76,1.68
1.358,-5.84,4.30,-1.78,7.46
1.368,-7.90,5.25,-1.95,9.68
1.378,-7.87,4.75,0.02,9.20
1.388,-5.94,3.91,1.72,7.31
1.398,-2.03,1.93,1.47,3.16
1.408,0.76,0.61,2.41,2.60
1.418,2.18,0.05,2.68,3.46
1.428,2.96,-0.79,2.91,4.23
1.438,1.76,-1.53,2.41,3.35
1.447,-0.01,-1.81,0.35,1.84
1.458,0.09,-2.37,-1.30,2.70
1.468,0.49,-2.52,-1.84,3.16
1.478,0.69,-2.87,-1.41,3.27
1.488,1.57,-4.19,0.30,4.49
1.498,2.27,-5.52,1.01,6.05
1.508,1.99,-4.88,0.85,5.34
1.518,1.64,-4.00,0.95,4.42
1.528,1.75,-3.54,1.31,4.16
1.538,2.05,-3.25,1.62,4.17
1.548,1.82,-2.91,0.87,3.54
1.557,-1.88,4.80,-14.29,15.19
1.568,-1.70,2.88,-5.10,6.09
1.578,-0.86,1.70,-1.69,2.55
1.587,0.08,1.27,-1.65,2.08
1.598,0.73,0.89,-2.60,2.85
1.607,1.65,-0.80,-1.08,2.13
1.618,2.27,-2.08,-0.09,3.08
1.628,1.86,-1.93,-0.90,2.83
1.637,1.05,-1.62,-0.96,2.15
1.647,0.31,-1.56,-0.36,1.63
1.658,-0.23,-1.12,0.11,1.15
1.667,-0.63,-0.52,1.06,1.34
1.677,-0.92,0.30,1.69,1.95
1.687,-1.38,1.10,1.47,2.30
1.697,-3.61,3.60,-2.13,5.52
1.707,-3.88,11.35,-2.39,12.23
1.717,-3.86,15.98,1.32,16.49
1.727,0.24,10.27,-0.01,10.28
1.737,4.98,1.13,-3.00,5.92
1.747,5.38,-2.05,-1.79,6.03
1.757,3.46,-1.72,-0.46,3.89
1.767,1.03,-1.16,-0.11,1.56
1.777,-0.66,-0.56,-0.34,0.93
1.787,-1.15,0.17,-0.92,1.48
1.797,-0.82,0.71,-1.26,1.66
1.807,-0.10,1.04,-1.24,1.62
1.817,0.35,1.29,-0.53,1.44
1.827,0.29,1.45,0.43,1.54
1.837,-0.03,1.53,0.67,1.67
1.847,-0.73,1.28,0.38,1.52
1.857,-1.34,0.80,-0.20,1.58
1.867,-1.53,0.27,-0.31,1.58
1.877,-1.25,-0.16,-0.18,1.28
1.887,-0.72,-0.51,-0.50,1.02
1.897,-0.24,-0.85,-1.19,1.49
1.907,-0.13,-1.24,-2.23,2.56
1.917,-0.32,-1.33,-2.69,3.02
1.927,-0.70,-0.92,-2.85,3.08
1.937,-0.56,-1.81,-2.26,2.95
1.947,-0.34,-2.47,-2.40,3.46
1.957,-0.37,-2.29,-2.50,3.41
1.967,-0.42,-1.92,-2.40,3.11
1.977,-0.46,-1.56,-2.63,3.09
1.987,-0.44,-1.47,-3.23,3.58
1.997,-0.37,-1.59,-3.41,3.78
2.007,-0.35,-1.71,-2.94,3.42
2.017,-0.48,-1.34,-2.41,2.79
2.027,-1.04,0.25,-2.04,2.30
2.037,-0.75,0.16,-2.35,2.47
2.047,-0.04,-0.99,-1.89,2.13
2.057,-0.58,0.65,-0.55,1.03
2.067,-0.80,1.85,-1.24,2.37
2.077,-0.97,2.95,-1.44,3.42
2.087,-1.27,3.97,-2.26,4.74
2.097,-2.42,6.59,-3.04,7.65
2.107,-3.65,5.84,-3.23,7.61
2.117,-3.74,4.50,-2.43,6.33
2.127,-3.32,3.81,-1.03,5.16
2.137,-2.62,3.43,-0.30,4.33
2.147,-2.09,2.99,-0.19,3.65
2.157,-1.60,2.27,-0.82,2.90
2.167,-1.05,1.63,-1.86,2.68
2.177,-0.59,1.40,-2.42,2.86
2.187,-0.59,1.25,-2.51,2.87
2.197,-1.04,-0.35,-2.11,2.38
2.207,-1.41,-2.82,-2.17,3.83
2.217,-1.72,-5.18,-1.83,5.75
2.227,-2.09,-6.44,-0.62,6.80
2.236,-2.10,-4.60,0.54,5.08
2.246,-1.75,-2.02,1.02,2.86
2.256,-1.70,1.19,0.48,2.13
2.267,-1.32,4.17,-1.24,4.54
2.276,-0.78,6.35,-2.04,6.71
2.286,-0.25,7.06,-1.36,7.19
2.296,0.20,6.04,0.18,6.04
2.306,0.68,3.96,1.13,4.17
2.316,1.42,1.89,1.47,2.79
2.326,2.54,0.57,1.77,3.15
2.336,3.68,-0.12,2.04,4.21
2.346,4.37,-0.53,2.09,4.87
2.356,4.46,-0.95,2.30,5.10
2.366,3.90,-1.32,2.75,4.96
2.376,3.10,-1.44,2.87,4.46
2.386,2.54,-1.28,2.71,3.92
2.396,2.23,-0.83,2.64,3.55
2.406,2.04,-0.21,3.07,3.69
2.416,1.89,-0.02,3.29,3.80
2.426,1.80,-0.07,3.16,3.64
2.436,1.88,-0.68,3.25,3.82
2.446,2.30,-1.48,3.07,4.12
2.456,3.02,-2.18,2.39,4.42
2.466,3.82,-2.83,1.70,5.04
2.476,4.44,-3.41,1.47,5.78
2.486,4.43,-3.83,1.30,6.00
2.496,3.68,-4.18,0.74,5.61
2.506,2.48,-4.08,0.06,4.77
2.516,1.51,-3.18,-0.42,3.54
2.526,0.74,-1.73,-0.82,2.05
2.536,-0.28,-0.27,-1.38,1.43
2.546,-1.26,1.10,-2.05,2.65
2.556,-2.14,2.35,-2.65,4.14
2.566,-3.00,3.32,-3.00,5.39
2.576,-3.91,4.06,-3.45,6.61
2.586,-4.69,4.79,-4.29,7.96
2.596,-5.07,5.83,-4.80,9.10
2.606,-4.88,7.35,-5.06,10.17
2.616,-3.55,7.92,-4.96,10.00
2.626,-1.25,5.97,-4.43,7.54
2.636,0.63,3.03,-5.36,6.19
2.646,1.92,0.83,-4.89,5.32
2.656,2.97,-0.12,-1.31,3.25
2.666,3.08,0.34,1.09,3.28
2.676,1.85,1.32,2.54,3.40
2.686,0.27,2.14,3.11,3.78
2.696,-0.51,2.45,1.95,3.17
2.706,-0.12,1.64,0.63,1.76
2.716,0.62,0.52,0.12,0.82
2.726,1.47,-0.43,0.72,1.70
2.736,2.49,-1.32,1.23,3.07
2.746,3.42,-2.20,0.40,4.09
2.756,3.54,-3.17,0.05,4.75
2.766,2.88,-4.00,0.45,4.95
2.776,2.05,-5.04,0.26,5.45
2.786,1.08,-5.99,0.38,6.09
2.796,0.11,-5.90,0.65,5.93
2.806,-0.44,-4.51,1.15,4.68
2.816,-0.80,-2.24,1.79,2.97
2.826,-0.69,-0.07,0.87,1.11
2.836,-0.52,1.99,-0.87,2.23
2.846,-0.57,3.53,-1.58,3.91
2.856,-0.91,4.28,-0.89,4.46
2.866,-1.28,3.26,0.13,3.51
2.875,-1.19,0.93,0.57,1.61
2.885,-0.74,-0.83,0.47,1.21
2.896,-0.42,-1.76,0.40,1.85
2.906,-0.33,-2.01,0.59,2.12
2.915,-0.12,-1.89,0.66,2.01
2.925,0.23,-1.74,0.20,1.77
2.936,0.65,-1.56,-0.55,1.78
2.946,0.82,-1.31,-0.56,1.65
2.956,0.54,-0.90,0.05,1.05
2.965,0.09,-0.63,0.28,0.69
2.976,-0.12,-0.92,-0.81,1.23
2.985,-0.52,-1.49,-2.15,2.67
2.995,-1.76,-2.00,-1.71,3.17
3.005,-3.14,-2.42,-0.15,3.96
3.015,-3.64,-3.00,0.35,4.73
3.025,-3.34,-3.28,-0.64,4.73
3.036,-3.07,-3.01,-2.06,4.77
3.045,-3.11,-2.25,-2.65,4.66
3.055,-3.09,-1.21,-2.57,4.20
3.065,-2.65,-0.35,-2.72,3.82
3.075,-1.94,0.35,-3.16,3.73
3.085,-1.50,0.97,-3.64,4.06
3.095,-1.42,1.35,-4.05,4.50
3.105,-1.30,1.57,-4.08,4.56
3.115,-1.24,2.00,-2.97,3.79
3.125,-1.80,2.61,-1.80,3.65
3.135,-3.20,3.29,-0.98,4.69
3.145,-4.87,3.72,0.38,6.14
3.155,-6.00,3.90,1.70,7.36
3.165,-6.61,3.71,3.03,8.16
3.175,-5.75,2.40,1.29,6.36
3.185,-3.53,0.65,-1.50,3.89
3.195,-1.22,1.14,-4.12,4.44
3.205,0.39,2.67,-4.93,5.62
3.215,0.79,3.33,-4.41,5.58
3.225,0.53,3.20,-3.08,4.47
3.235,0.37,2.90,-1.49,3.28
3.245,0.60,1.93,-0.72,2.15
3.255,0.51,-1.91,-1.22,2.33
3.265,-0.98,-5.14,-1.35,5.41
3.275,-2.05,-3.78,-0.37,4.32
3.285,-1.80,-0.33,0.83,2.01
3.295,-0.94,1.93,0.81,2.29
3.305,-0.27,3.33,0.85,3.45
3.315,0.27,4.39,1.40,4.62
3.325,0.59,4.43,2.11,4.95
3.335,0.88,3.29,2.68,4.33
3.345,1.48,1.63,2.24,3.14
3.355,2.68,0.40,1.28,2.99
3.365,3.94,-0.06,1.25,4.13
3.375,4.80,-0.47,2.45,5.41
3.385,5.03,-1.06,3.69,6.33
3.395,4.80,-1.81,4.59,6.88
3.405,4.40,-2.32,4.80,6.91
3.414,3.95,-2.07,4.10,6.06
3.425,3.59,-1.73,3.42,5.25
3.435,3.31,-1.34,2.98,4.65
3.445,3.15,-1.23,2.59,4.26
3.455,2.97,-1.49,2.34,4.06
3.465,2.91,-1.66,2.05,3.92
3.475,3.00,-1.74,1.77,3.90
3.485,3.09,-2.02,1.12,3.85
3.494,2.90,-2.11,0.35,3.61
3.505,2.27,-1.98,0.02,3.01
3.515,1.30,-1.93,0.03,2.32
3.524,0.49,-1.65,-0.52,1.80
3.534,0.06,-0.83,-1.55,1.76
3.544,-0.25,0.54,-2.01,2.10
3.554,-0.65,1.97,-1.98,2.87
3.564,-1.34,2.95,-2.49,4.09
3.574,-2.58,3.71,-4.03,6.05
3.584,-4.04,4.48,-4.36,7.44
3.595,-4.97,5.93,-2.51,8.13
3.604,-4.66,6.83,-2.22,8.56
3.614,-4.33,4.10,-4.44,7.43
3.624,-3.66,0.97,-4.60,5.96
3.634,-1.95,0.68,-2.14,2.97
3.644,-0.54,1.92,-0.06,1.99
3.654,0.21,2.68,0.88,2.83
3.664,0.88,2.58,1.56,3.15
3.674,1.70,1.85,1.67,3.02
3.684,2.20,1.31,0.55,2.61
3.694,2.73,1.01,0.11,2.91
3.704,3.50,0.68,0.14,3.57
3.714,4.23,0.34,-0.38,4.26
3.724,4.61,-0.07,-0.50,4.63
3.734,4.49,-0.49,-0.64,4.56
3.744,3.78,-1.29,-0.66,4.05
3.754,2.71,-2.43,-1.19,3.83
3.764,1.54,-3.46,-1.60,4.11
3.774,0.14,-3.43,-0.77,3.52
3.784,-0.64,-2.35,-0.37,2.46
3.794,-1.12,-0.46,0.73,1.42
3.804,-1.40,1.48,1.23,2.38
3.814,-1.38,2.84,0.79,3.25
3.824,-1.48,3.36,0.54,3.71
3.834,-1.56,3.05,0.59,3.48
3.844,-1.33,1.49,1.15,2.30
3.854,-0.80,-0.77,1.51,1.88
3.864,-0.21,-2.54,1.27,2.85
3.874,0.01,-3.52,0.71,3.59
3.884,-0.13,-4.14,0.12,4.15
3.894,-0.49,-4.24,-0.01,4.27
3.904,-1.09,-3.74,0.33,3.91
3.914,-1.46,-3.15,0.67,3.54
3.924,-1.11,-2.76,-0.10,2.97
3.934,-0.21,-2.54,-1.27,2.84
3.944,0.48,-2.47,-1.69,3.03
3.954,0.58,-2.79,-1.70,3.32
3.964,-0.07,-3.20,-1.61,3.58
3.974,-1.45,-3.38,-1.50,3.97
3.984,-2.90,-3.48,-1.22,4.69
3.994,-3.79,-3.56,-1.25,5.35
4.004,-3.92,-3.53,-1.65,5.53
4.014,-3.72,-3.24,-2.20,5.41
4.024,-3.47,-2.45,-2.34,4.85
4.034,-3.09,-1.12,-2.38,4.05
4.043,-2.59,0.37,-2.41,3.56
4.054,-1.89,1.78,-2.12,3.35
4.063,-1.36,2.68,-1.84,3.52
4.074,-1.06,3.20,-1.82,3.83
4.084,-0.96,3.75,-1.85,4.29
4.094,-1.30,4.44,-1.84,4.98
4.104,-2.07,5.13,-1.94,5.87
4.114,-3.20,5.16,-1.62,6.28
4.124,-4.21,3.75,-0.72,5.68
4.134,-4.40,1.64,-0.04,4.69
4.143,-3.67,-0.02,-0.78,3.75
4.154,-2.17,-0.96,-1.87,3.02
4.164,-0.79,-0.60,-3.33,3.47
4.174,-0.33,1.71,-3.82,4.20
4.184,-0.59,3.80,-4.01,5.56
4.194,-1.07,4.40,-3.60,5.79
4.203,-1.35,3.47,-2.22,4.33
4.213,-1.19,0.76,-0.83,1.64
4.223,-1.86,-3.61,-0.67,4.11
4.233,-2.68,-5.56,-1.70,6.40
4.243,-2.68,-2.72,-0.47,3.85
4.253,-1.64,1.52,0.99,2.45
4.263,-0.58,4.16,1.45,4.44
4.273,0.25,6.19,1.06,6.28
4.283,0.50,6.74,1.39,6.90
4.293,0.13,5.75,2.55,6.29
4.303,0.34,3.84,2.96,4.86
4.313,2.11,2.53,1.60,3.66
4.323,4.33,1.53,0.61,4.63
4.333,5.48,-0.06,1.89,5.79
4.343,5.21,-1.38,4.16,6.81
4.353,4.28,-1.96,5.39,7.15
4.363,3.55,-2.51,5.28,6.84
4.373,3.15,-2.65,4.78,6.31
4.383,2.69,-2.31,4.08,5.41
4.393,2.24,-1.77,3.21,4.29
4.403,2.15,-1.22,2.30,3.38
4.413,2.30,-0.97,1.66,3.00
4.423,2.56,-1.13,1.78,3.32
4.433,2.95,-1.76,2.25,4.11
4.443,3.43,-2.70,1.97,4.79
4.453,3.77,-3.40,0.82,5.14
4.463,3.95,-3.60,0.69,5.38
4.473,3.90,-3.57,1.24,5.43
4.483,3.52,-3.74,0.79,5.19
4.493,2.61,-3.46,-0.05,4.33
4.503,1.54,-2.26,-0.86,2.87
4.513,0.73,-0.49,-1.39,1.65
4.523,0.23,1.47,-1.72,2.28
4.533,-0.35,3.27,-3.25,4.62
4.543,-2.43,5.19,-6.12,8.38
4.553,-5.14,7.70,-5.70,10.87
4.563,-5.91,10.43,-1.29,12.06
4.573,-5.49,10.57,0.10,11.91
4.583,-4.27,7.03,-1.78,8.42
4.593,-1.43,2.59,-3.87,4.87
4.603,1.91,0.92,-3.29,3.91
4.613,3.63,1.49,-0.83,4.01
4.623,2.68,2.42,0.34,3.63
4.633,1.13,2.35,0.25,2.62
4.643,0.57,2.21,0.09,2.29
4.653,0.69,2.31,-0.20,2.42
4.663,1.20,2.29,-0.50,2.64
4.673,2.07,1.84,-0.24,2.78
4.683,2.91,1.10,-0.10,3.11
4.693,3.35,0.12,-0.25,3.36
4.703,3.39,-1.04,-0.61,3.60
4.713,2.92,-2.13,-1.20,3.81
4.723,2.37,-3.14,-2.59,4.71
4.733,1.40,-4.16,-2.14,4.88
4.743,0.36,-4.26,-1.65,4.58
4.752,-0.23,-2.84,0.55,2.91
4.763,-0.62,-0.62,1.87,2.07
4.773,-0.68,0.95,0.76,1.39
4.783,-0.83,2.26,0.25,2.42
4.793,-1.35,3.21,-0.00,3.48
4.802,-1.62,2.60,0.48,3.10
4.812,-1.39,0.49,1.15,1.87
4.822,-1.16,-1.47,1.18,2.21
4.833,-0.92,-2.61,0.54,2.82
4.842,-0.59,-3.35,-0.08,3.40
4.853,-0.28,-3.72,-0.03,3.73
4.862,-0.10,-3.65,0.51,3.69
4.873,-0.02,-3.60,1.02,3.74
4.882,0.17,-3.63,0.60,3.68
4.892,0.45,-3.35,-1.12,3.56
4.902,0.61,-2.86,-2.79,4.04
4.912,0.08,-2.17,-2.24,3.12
4.922,-0.82,-2.02,-1.11,2.45
4.932,-1.68,-2.33,-0.50,2.92
4.942,-2.43,-2.76,-0.40,3.70
4.953,-2.82,-2.97,-1.29,4.29
4.962,-3.10,-2.88,-2.54,4.93
4.972,-3.45,-2.48,-3.21,5.32
4.982,-3.31,-2.10,-3.49,5.25
4.992,-2.75,-1.69,-3.50,4.76
5.002,-2.23,-1.00,-3.50,4.27
5.012,-1.57,-0.28,-3.36,3.72
5.022,-1.09,0.24,-3.01,3.21
5.032,-0.89,0.66,-3.30,3.48
5.042,-1.05,1.51,-3.12,3.62
5.052,-2.34,3.04,-1.04,3.97
5.062,-4.01,4.24,0.80,5.89
5.072,-5.73,3.96,1.58,7.14
5.082,-6.89,2.15,0.98,7.29
5.092,-6.14,0.73,-0.28,6.19
5.102,-3.76,0.15,-1.95,4.24
5.112,-1.53,0.84,-3.76,4.14
5.122,-0.33,3.49,-4.19,5.46
5.132,-0.34,5.34,-3.16,6.21
5.142,-0.95,4.84,-1.80,5.25
5.152,-1.36,3.46,-1.37,3.96
5.162,-1.39,2.41,-0.73,2.87
5.172,-1.63,0.84,-0.40,1.88
5.182,-2.84,-1.97,-0.47,3.49
5.192,-3.23,-2.65,-0.74,4.24
5.202,-2.46,-0.93,-0.01,2.63
5.212,-1.63,1.77,1.43,2.80
5.222,-0.74,3.47,1.98,4.06
5.232,0.01,4.12,1.83,4.50
5.242,0.28,3.84,2.32,4.49
5.252,0.78,3.11,2.65,4.16
5.262,2.19,2.38,1.83,3.71
5.272,4.04,1.84,1.18,4.59
5.282,5.44,0.86,2.05,5.88
5.292,5.57,0.06,3.71,6.69
5.302,4.87,-0.60,5.05,7.04
5.312,4.05,-1.20,5.04,6.57
5.322,3.48,-1.55,4.37,5.79
5.332,2.95,-1.39,3.52,4.80
5.342,2.44,-0.48,3.12,3.99
5.352,1.84,0.01,2.78,3.33
5.362,1.20,-0.52,2.16,2.53
5.372,0.82,-1.81,1.41,2.43
5.382,0.95,-2.54,-0.26,2.72
5.392,1.87,-2.34,-0.89,3.12
5.402,2.96,-2.10,0.51,3.66
5.412,3.70,-2.43,1.14,4.57
5.422,3.53,-2.96,-0.02,4.61
5.432,3.14,-2.92,-0.96,4.39
5.442,3.07,-2.14,-1.88,4.19
5.452,2.78,-1.01,-2.02,3.59
5.462,1.68,-0.03,-2.32,2.86
5.471,-0.11,2.53,-4.32,5.00
5.481,-0.46,6.30,-4.23,7.61
5.492,-0.81,8.40,-3.25,9.05
5.501,-2.61,7.92,-2.14,8.61
5.512,-3.84,7.32,0.10,8.26
5.521,-4.07,7.65,1.97,8.89
5.531,-3.93,6.29,1.23,7.52
5.541,-2.52,3.70,0.88,4.56
5.552,-0.08,1.99,0.89,2.18
5.561,2.35,1.13,0.06,2.61
5.571,4.23,0.50,-0.73,4.32
5.581,5.47,0.31,-0.95,5.56
5.591,6.07,0.54,-1.49,6.27
5.601,5.82,0.39,-2.04,6.17
5.611,4.85,-0.44,-1.47,5.08
5.621,3.71,-1.05,-2.00,4.34
5.631,2.43,-1.46,-2.93,4.08
5.641,1.02,-1.49,-2.67,3.23
5.651,-0.05,-1.43,-1.46,2.05
5.661,-0.97,-0.58,0.20,1.15
5.671,-1.71,0.50,0.74,1.93
5.681,-2.10,1.35,0.60,2.57
5.691,-2.20,1.53,0.71,2.77
5.701,-2.06,1.11,0.85,2.49
5.711,-1.71,0.19,1.43,2.24
5.721,-1.17,-1.31,1.54,2.34
5.731,-0.65,-2.67,1.30,3.04
5.741,-0.31,-3.35,0.77,3.45
5.751,-0.49,-3.47,0.67,3.57
5.761,-0.92,-3.34,1.28,3.70
5.771,-1.13,-3.33,1.48,3.82
5.781,-0.75,-3.57,0.10,3.65
5.791,0.19,-3.64,-1.72,4.03
5.801,0.80,-3.28,-1.68,3.77
5.811,0.80,-2.90,-0.76,3.10
5.821,0.53,-3.03,-0.66,3.15
5.831,0.01,-3.15,-0.97,3.30
5.841,-0.48,-3.44,-1.55,3.80
5.851,-1.45,-3.71,-1.77,4.36
5.861,-2.97,-3.81,-1.67,5.11
5.871,-4.40,-3.70,-0.96,5.83
5.881,-5.18,-3.57,-0.29,6.30
5.891,-5.23,-3.58,-0.38,6.35
5.901,-4.72,-3.48,-1.44,6.03
5.911,-3.87,-2.89,-2.57,5.47
5.921,-2.99,-1.77,-3.15,4.69
5.931,-2.20,-0.46,-3.61,4.25
5.941,-1.70,0.63,-3.89,4.29
5.951,-1.45,1.39,-3.52,4.05
5.961,-1.05,2.04,-3.09,3.85
5.971,-0.54,2.68,-2.57,3.75
5.981,-0.14,3.38,-1.93,3.90
5.991,0.22,4.05,-1.68,4.39
6.000,0.53,4.47,-2.13,4.98
6.011,0.19,4.42,-2.45,5.06
6.021,-1.16,4.02,-2.15,4.70
6.031,-2.90,3.32,-1.78,4.75
6.041,-3.95,2.44,-1.69,4.94
6.051,-4.20,1.30,-1.40,4.62
6.061,-3.48,0.41,-2.03,4.05
6.071,-2.34,1.61,-3.04,4.16
6.080,-1.63,4.26,-3.72,5.89
6.091,-1.56,5.60,-2.53,6.35
6.100,-1.74,3.97,-1.36,4.54
6.111,-2.00,1.02,0.10,2.25
6.121,-1.91,-1.86,-0.72,2.76
6.131,-2.11,-4.55,-2.70,5.70
6.141,-1.93,-4.15,-3.24,5.61
6.150,-1.27,-0.25,-0.67,1.46
6.160,-0.35,3.23,0.71,3.33
6.171,0.33,5.50,1.40,5.69
6.180,0.65,6.62,1.43,6.80
6.191,0.38,5.89,1.92,6.21
6.200,-0.11,3.71,2.86,4.69
6.210,-0.09,1.33,3.15,3.42
6.220,0.97,-0.54,2.07,2.35
6.230,2.97,-0.66,1.08,3.22
6.240,5.04,-0.28,1.80,5.36
6.250,6.08,-0.64,3.12,6.87
6.260,5.97,-1.36,4.20,7.42
6.270,5.31,-2.02,4.42,7.20
6.280,4.61,-2.24,4.09,6.56
6.290,4.01,-2.12,3.62,5.80
6.300,3.44,-1.66,2.95,4.83
6.310,3.03,-1.14,2.43,4.05
6.320,2.86,-0.77,2.31,3.76
6.330,2.83,-0.70,2.24,3.68
6.340,2.90,-0.80,1.92,3.57
6.350,3.00,-0.92,1.88,3.66
6.360,3.10,-0.97,1.93,3.78
6.370,2.79,-1.24,1.19,3.27
6.381,2.13,-1.35,0.09,2.52
6.390,1.76,-1.36,-0.40,2.26
6.400,1.83,-1.54,-0.70,2.49
6.410,1.58,-1.58,-1.22,2.55
6.420,0.74,-1.33,-2.06,2.56
6.430,-0.16,-0.70,-2.27,2.38
6.440,-0.77,0.51,-1.98,2.18
6.450,-1.13,2.14,-2.19,3.26
6.460,-1.73,4.06,-2.80,5.23
6.470,-2.20,5.46,-2.39,6.35
6.480,-1.78,5.80,-2.86,6.71
6.490,-1.21,4.95,-4.84,7.03
6.500,-0.89,3.71,-5.39,6.60
6.510,-0.62,3.63,-3.42,5.02
6.520,-1.34,4.39,0.63,4.64
6.530,-2.63,5.12,2.21,6.17
6.540,-2.80,4.86,1.57,5.82
6.550,-1.27,3.57,1.48,4.06
6.560,1.03,2.17,1.54,2.85
6.570,2.74,1.26,1.54,3.38
6.580,3.64,0.73,1.10,3.87
6.590,3.96,0.44,0.07,3.98
6.600,3.91,0.15,-0.94,4.02
6.610,3.53,-0.20,-1.21,3.74
6.619,2.99,-0.98,-1.05,3.32
6.630,2.16,-2.26,-0.52,3.17
6.640,1.28,-3.00,-1.63,3.64
6.650,-0.01,-3.36,-1.74,3.79
6.660,-1.18,-2.80,-1.60,3.43
6.670,-1.89,-1.13,-0.54,2.27
6.680,-2.06,0.97,0.54,2.34
6.690,-1.76,2.90,1.07,3.56
6.700,-1.26,3.45,0.81,3.76
6.710,-0.77,2.25,0.25,2.39
6.719,-0.30,0.26,0.43,0.59
6.730,0.03,-1.58,1.04,1.89
6.739,0.10,-2.85,1.07,3.04
6.749,-0.04,-3.44,0.18,3.45
6.759,-0.46,-3.52,0.13,3.55
6.769,-0.85,-3.23,0.30,3.36
6.779,-0.73,-2.90,-0.21,3.00
6.789,-0.37,-2.64,-0.58,2.73
6.799,-0.00,-2.58,-0.31,2.60
6.809,0.23,-2.68,0.01,2.69
6.819,0.34,-3.02,-0.39,3.07
6.829,0.12,-3.14,-1.12,3.34
6.839,-0.69,-2.98,-1.50,3.41
6.849,-1.80,-2.56,-1.31,3.39
6.859,-2.63,-2.42,-0.90,3.69
6.869,-2.80,-2.74,-0.88,4.02
6.879,-2.63,-3.05,-0.97,4.15
6.889,-2.51,-3.13,-1.07,4.15
6.899,-2.42,-2.89,-1.18,3.95
6.909,-2.43,-2.27,-1.23,3.55
6.919,-2.32,-1.45,-1.57,3.15
6.929,-2.09,-0.49,-1.96,2.90
6.939,-1.76,0.67,-2.13,2.84
6.949,-1.40,1.69,-2.14,3.06
6.959,-1.19,2.37,-2.10,3.39
6.969,-1.26,2.83,-2.03,3.71
6.979,-1.63,3.28,-1.86,4.11
6.989,-2.28,3.70,-1.91,4.75
6.999,-3.17,4.11,-1.84,5.51
7.009,-4.04,4.01,-1.32,5.84
7.019,-4.20,2.78,-0.69,5.08
7.029,-3.74,1.29,-0.46,3.99
7.039,-2.80,-0.09,-1.06,2.99
7.049,-1.89,-1.24,-1.57,2.75
7.059,-1.29,-1.66,-1.76,2.74
7.069,-0.81,-1.58,-1.61,2.39
7.079,-0.34,-0.49,-1.67,1.78
7.089,-0.18,1.77,-2.16,2.80
7.099,-0.31,2.76,-2.32,3.62
7.109,-0.50,2.32,-1.59,2.85
7.119,-0.63,1.53,-0.84,1.86
7.129,-1.08,0.14,-0.67,1.28
7.139,-1.77,-1.49,-1.64,2.84
7.149,-2.14,-1.57,-2.03,3.34
7.159,-1.99,-0.08,-0.16,2.00
7.169,-1.61,1.60,1.24,2.59
7.179,-1.26,3.04,1.66,3.68
7.189,-0.54,3.76,2.11,4.35
7.199,0.32,3.64,2.21,4.27
7.209,1.04,2.92,1.90,3.64
7.219,1.77,2.54,1.77,3.57
7.229,2.90,2.36,1.55,4.05
7.239,4.03,1.69,1.30,4.56
7.249,4.39,0.96,1.63,4.78
7.259,4.01,0.42,2.70,4.85
7.269,3.31,-0.19,3.43,4.77
7.279,2.67,-0.54,3.86,4.73
7.289,2.25,-0.70,3.84,4.50
7.298,2.10,-0.62,3.33,3.98
7.309,2.04,-0.38,2.74,3.44
7.319,2.04,-0.28,2.40,3.17
7.329,2.07,-0.54,2.41,3.22
7.339,2.13,-0.81,2.60,3.46
7.349,2.28,-0.98,2.57,3.57
7.359,2.32,-0.98,2.35,3.45
7.369,2.14,-0.94,1.15,2.60
7.379,2.01,-1.17,-0.14,2.33
7.389,2.35,-1.92,-0.39,3.06
7.398,2.85,-2.72,-0.37,3.96
7.409,3.16,-3.10,-0.44,4.45
7.418,3.10,-3.04,-0.88,4.43
7.429,2.38,-2.35,-1.47,3.65
7.438,1.07,-1.05,-2.03,2.52
7.448,-0.11,0.75,-2.53,2.64
7.458,-0.97,2.42,-3.26,4.18
7.469,-2.38,3.53,-4.17,5.96
7.478,-4.12,4.87,-3.63,7.34
7.489,-4.21,6.43,-2.46,8.07
7.498,-3.41,6.37,-2.82,7.76
7.509,-2.74,4.27,-3.41,6.12
7.518,-1.91,2.90,-2.06,4.04
7.528,-1.31,3.91,0.98,4.24
7.538,-1.71,5.06,2.64,5.96
7.548,-2.06,4.80,2.54,5.81
7.558,-1.29,3.60,1.41,4.08
7.568,0.14,2.57,0.60,2.64
7.578,1.59,1.66,0.29,2.32
7.588,2.92,0.91,-0.38,3.08
7.598,4.07,0.27,-0.68,4.14
7.608,4.95,-0.46,-0.97,5.06
7.618,5.36,-1.23,-1.13,5.61
7.628,5.11,-2.05,-1.19,5.63
7.638,4.23,-2.78,-1.08,5.18
7.648,3.10,-2.93,-1.95,4.69
7.658,1.74,-2.91,-1.97,3.92
7.668,0.38,-2.28,-1.44,2.73
7.678,-0.56,-1.20,-0.85,1.58
7.688,-1.10,0.17,-0.17,1.13
7.698,-1.33,1.18,0.36,1.82
7.708,-1.41,1.86,0.50,2.39
7.718,-1.39,1.82,0.73,2.40
7.728,-1.01,0.58,0.43,1.25
7.738,-0.64,-0.91,0.67,1.30
7.748,-0.40,-2.01,0.88,2.23
7.758,-0.25,-2.60,0.69,2.70
7.768,-0.37,-2.72,0.52,2.79
7.778,-0.75,-2.84,0.23,2.95
7.788,-0.91,-2.92,0.10,3.06
7.798,-0.49,-2.93,-0.29,2.99
7.808,0.42,-2.97,-0.89,3.13
7.818,1.20,-2.87,-0.97,3.26
7.828,1.63,-2.61,-1.04,3.25
7.838,1.58,-2.36,-1.23,3.09
7.848,0.59,-2.07,-0.97,2.36
7.858,-1.03,-1.76,-0.45,2.09
7.868,-2.39,-1.73,-0.35,2.97
7.878,-3.23,-1.93,-0.46,3.79
7.888,-3.58,-2.24,-0.48,4.25
7.898,-3.34,-2.52,-0.65,4.23
7.908,-2.94,-2.56,-0.74,3.97
7.918,-2.45,-2.42,-1.10,3.61
7.928,-1.77,-2.16,-1.90,3.38
7.938,-1.17,-1.55,-2.45,3.12
7.948,-0.56,-0.88,-2.60,2.80
7.958,0.02,-0.24,-2.68,2.69
7.968,0.39,0.27,-2.75,2.79
7.978,0.44,0.44,-2.56,2.63
7.988,0.16,0.58,-2.38,2.45
7.997,-0.31,0.96,-2.39,2.59
8.008,-1.15,1.60,-2.18,2.94
8.017,-2.57,2.38,-1.70,3.89
8.028,-4.22,2.92,-1.73,5.42
8.037,-5.52,2.72,-1.51,6.33
8.047,-5.67,1.74,-1.27,6.07
8.058,-4.47,0.61,-1.46,4.75
8.068,-2.77,-0.15,-1.70,3.25
8.078,-1.12,-0.51,-1.84,2.22
8.087,-0.21,0.08,-2.17,2.18
8.097,-0.38,2.37,-2.92,3.78
8.108,-0.90,4.12,-2.85,5.09
8.117,-1.63,4.07,-1.23,4.55
8.127,-2.29,3.00,0.02,3.77
8.137,-2.79,1.70,0.34,3.29
8.147,-3.32,0.32,-0.66,3.41
8.157,-4.13,-1.33,-1.70,4.66
8.167,-4.07,-1.04,-2.11,4.70
8.177,-2.98,0.88,-0.65,3.17
8.187,-1.66,3.30,-0.02,3.69
8.197,-0.33,5.10,0.62,5.14
8.207,0.79,5.40,1.20,5.59
8.217,1.16,4.53,1.85,5.03
8.227,1.00,3.16,2.49,4.14
8.237,1.55,2.36,2.10,3.52
8.247,2.93,1.93,1.17,3.70
8.257,4.19,0.99,1.24,4.48
8.267,4.57,-0.06,2.19,5.07
8.277,4.06,-0.27,3.73,5.52
8.287,3.15,-0.64,4.41,5.45
8.297,2.54,-1.53,4.12,5.07
8.307,2.26,-1.74,3.41,4.45
8.317,2.19,-1.34,2.99,3.94
8.327,2.52,-0.93,2.99,4.02
8.337,3.05,-0.93,2.65,4.15
8.347,3.36,-1.44,2.34,4.34
8.357,3.47,-2.05,2.28,4.63
8.367,3.49,-2.69,2.13,4.89
8.377,3.53,-2.83,1.81,4.87
8.387,3.63,-2.67,1.43,4.73
8.397,3.71,-2.54,1.43,4.72
8.407,3.44,-2.64,1.52,4.59
8.417,2.80,-2.77,0.79,4.02
8.427,2.30,-2.75,-0.66,3.64
8.437,1.88,-2.38,-2.55,3.96
8.447,1.31,-1.64,-3.96,4.48
8.457,0.47,-0.66,-4.37,4.45
8.467,-1.02,1.57,-4.46,4.84
8.477,-2.51,4.99,-4.44,7.14
8.487,-2.90,7.96,-2.71,8.89
8.497,-2.82,8.25,-0.65,8.74
8.507,-3.32,6.15,-0.70,7.03
8.517,-2.86,4.68,-0.56,5.52
8.527,-1.08,4.54,-0.03,4.67
8.536,0.09,4.22,-1.13,4.36
8.547,0.19,3.30,-1.95,3.84
8.557,0.26,2.69,-2.16,3.46
8.567,0.25,2.68,-1.02,2.88
8.577,0.01,2.69,0.77,2.80
8.587,0.29,2.41,1.26,2.73
8.597,1.32,1.80,0.18,2.24
8.607,2.51,0.86,-0.65,2.73
8.617,3.40,-0.28,-1.04,3.57
8.627,3.62,-1.21,-0.98,3.94
8.637,3.15,-1.91,-0.61,3.74
8.646,2.14,-2.26,-0.67,3.18
8.657,0.85,-2.13,-0.21,2.30
8.667,0.06,-1.61,-0.94,1.87
8.677,-0.42,-1.38,-1.54,2.11
8.687,-0.99,-1.00,-0.60,1.53
8.696,-1.34,-0.41,0.29,1.44
8.707,-1.45,0.53,0.66,1.68
8.717,-1.69,1.32,1.21,2.46
8.727,-1.72,1.36,1.67,2.75
8.737,-1.38,0.57,1.78,2.33
8.747,-0.85,-0.73,1.51,1.88
8.756,-0.38,-2.13,0.18,2.17
8.766,-0.27,-2.79,-0.12,2.80
8.776,-0.39,-2.78,0.25,2.82
8.786,-0.41,-2.68,0.37,2.74
8.796,-0.27,-2.77,0.36,2.80
8.806,0.08,-2.88,0.10,2.89
8.816,0.52,-2.92,-0.30,2.98
8.826,0.83,-2.81,-0.63,3.00
8.836,0.76,-2.49,-0.38,2.63
8.846,0.45,-2.19,-0.28,2.25
8.856,0.26,-1.99,-0.86,2.19
8.866,-0.11,-1.94,-1.24,2.30
8.876,-1.01,-1.89,-0.90,2.32
8.886,-2.19,-2.07,-0.53,3.06
8.896,-2.76,-2.74,-0.91,4.00
8.906,-2.72,-3.21,-1.46,4.46
8.916,-2.63,-3.16,-1.79,4.49
8.926,-2.56,-2.63,-1.88,4.12
8.936,-2.30,-1.72,-1.89,3.44
8.946,-1.69,-0.88,-2.31,2.99
8.956,-1.06,-0.03,-2.78,2.98
8.966,-0.66,0.71,-3.20,3.35
8.976,-0.50,1.23,-3.44,3.68
8.986,-0.49,1.61,-3.33,3.73
8.996,-0.54,2.01,-3.23,3.85
9.006,-0.93,2.52,-2.56,3.71
9.016,-2.11,3.16,-1.18,3.98
9.026,-3.57,3.79,-0.57,5.24
9.036,-4.74,4.15,-0.19,6.31
9.046,-5.15,3.70,-0.14,6.35
9.056,-4.79,2.21,-0.50,5.30
9.066,-3.73,0.65,-1.17,3.96
9.076,-2.47,-0.28,-1.66,2.99
9.086,-1.29,-0.79,-1.96,2.47
9.096,-0.14,-0.97,-1.67,1.94
9.106,0.34,0.26,-1.88,1.93
9.116,-0.11,2.21,-2.71,3.50
9.126,-0.90,2.99,-2.03,3.73
9.136,-1.57,2.48,-0.60,2.99
9.146,-1.86,1.18,0.41,2.24
9.156,-2.06,-1.17,0.05,2.36
9.166,-2.40,-2.85,-1.64,4.08
9.176,-2.51,-2.32,-0.47,3.45
9.186,-2.02,-0.64,0.39,2.16
9.196,-1.17,1.89,0.94,2.41
9.206,-0.09,3.68,1.36,3.92
9.215,0.70,4.26,1.60,4.60
9.226,1.08,4.10,2.07,4.72
9.236,1.28,3.25,2.53,4.31
9.246,2.11,2.41,2.07,3.82
9.256,3.88,1.84,0.93,4.40
9.266,5.30,1.33,1.14,5.59
9.275,5.65,0.69,2.41,6.18
9.286,5.12,-0.17,3.64,6.28
9.295,4.23,-1.24,4.51,6.31
9.306,3.15,-2.10,4.53,5.90
9.316,2.18,-2.17,3.67,4.79
9.326,1.59,-1.64,2.62,3.47
9.336,1.52,-0.91,2.09,2.74
9.346,1.86,-0.53,1.99,2.78
9.356,2.37,-0.40,2.13,3.21
9.366,3.01,-0.59,2.46,3.93
9.376,3.60,-0.95,2.56,4.52
9.386,3.97,-1.15,2.08,4.62
9.395,3.91,-1.31,1.07,4.26
9.406,3.44,-1.47,0.10,3.74
9.415,2.72,-2.08,-0.28,3.44
9.425,2.21,-2.66,-0.87,3.57
9.435,1.92,-2.76,-1.24,3.59
9.445,1.59,-2.44,-1.64,3.34
9.455,1.02,-1.49,-1.76,2.52
9.465,0.28,-0.20,-1.80,1.83
9.475,-0.56,0.74,-2.36,2.53
9.485,-1.98,2.21,-3.45,4.55
9.495,-3.90,4.35,-3.77,6.95
9.505,-5.53,6.08,-3.90,9.09
9.515,-6.36,6.36,-4.08,9.88
9.525,-5.87,5.12,-3.89,8.71
9.535,-4.15,3.83,-1.35,5.80
9.545,-2.15,3.78,2.01,4.79
9.555,-0.79,3.47,2.21,4.19
9.565,0.49,2.53,0.07,2.58
9.575,1.73,0.90,-1.76,2.63
9.585,2.20,-0.10,-1.40,2.61
9.595,2.02,0.35,-0.57,2.13
9.605,1.77,1.31,-0.21,2.22
9.615,1.89,1.77,-0.29,2.61
9.625,2.33,1.75,-0.97,3.07
9.635,2.89,1.25,-1.52,3.50
9.645,3.25,0.27,-1.43,3.56
9.655,3.11,-0.94,-0.90,3.37
9.665,2.31,-1.87,-0.09,2.98
9.675,1.29,-2.21,0.38,2.58
9.685,0.62,-1.94,-1.13,2.34
9.695,-0.16,-1.37,-0.89,1.64
9.705,-0.81,-0.39,-0.25,0.94
9.715,-1.09,0.81,0.38,1.40
9.725,-1.22,2.09,0.49,2.47
9.735,-1.39,2.63,0.65,3.05
9.745,-1.53,2.51,1.47,3.28
9.755,-1.35,1.31,2.05,2.79
9.765,-0.85,-0.60,1.57,1.89
9.775,-0.37,-2.32,1.28,2.68
9.785,-0.25,-3.20,1.29,3.46
9.795,-0.44,-3.32,1.66,3.73
9.805,-0.32,-3.26,1.29,3.52
9.815,0.26,-3.57,-1.06,3.73
9.825,0.52,-3.44,-0.94,3.61
9.835,0.85,-3.04,-0.15,3.16
9.845,1.22,-2.82,-0.25,3.09
9.855,1.28,-2.56,-0.77,2.97
9.865,0.85,-2.34,-0.74,2.59
9.875,-0.02,-2.14,-0.59,2.22
9.885,-1.12,-2.08,-0.85,2.51
9.895,-2.20,-2.30,-1.28,3.43
9.905,-3.23,-2.68,-1.35,4.41
9.915,-3.91,-3.04,-1.43,5.15
9.925,-3.79,-3.36,-1.85,5.39
9.935,-3.37,-3.37,-2.24,5.27
9.945,-3.16,-2.95,-2.38,4.93
9.955,-2.98,-2.10,-2.36,4.34
9.964,-2.61,-1.16,-2.28,3.65
9.975,-2.15,-0.39,-2.24,3.13
9.985,-1.66,0.28,-2.05,2.65
9.995,-1.21,0.97,-1.93,2.47
10.005,-0.78,1.65,-2.44,3.04
10.014,-0.50,2.48,-2.97,3.90
10.024,-1.14,3.85,-2.21,4.59
10.034,-2.96,5.41,-1.31,6.31
10.044,-4.88,5.93,-1.40,7.81
10.054,-5.46,4.99,-1.92,7.65
10.064,-4.48,3.24,-1.90,5.85
10.074,-2.85,1.25,-2.50,3.99
10.084,-1.57,-0.42,-3.11,3.51
10.094,-0.79,-1.57,-2.31,2.90
10.104,-0.42,-1.76,-1.94,2.65
10.114,-0.50,-0.89,-1.64,1.93
10.124,-0.97,0.21,-2.31,2.52
10.134,-1.26,0.59,-2.56,2.91
10.144,-1.31,0.41,-1.61,2.12
10.154,-1.22,-0.04,-0.93,1.54
10.164,-1.36,-1.48,-1.17,2.33
10.174,-1.79,-2.68,-2.97,4.39
10.184,-1.51,-1.32,-2.71,3.38
10.194,-0.60,1.62,-0.65,1.84
10.204,0.17,4.27,0.58,4.31
10.214,0.80,5.97,1.16,6.13
10.224,1.42,6.10,1.58,6.46
10.234,1.46,4.57,2.11,5.24
10.244,1.09,1.89,2.02,2.97
10.254,1.59,0.57,0.88,1.91
10.264,3.59,0.60,-0.46,3.67
10.274,5.19,0.39,0.01,5.20
10.284,5.24,-0.43,1.97,5.61
10.294,4.06,-0.91,3.69,5.56
10.304,2.71,-1.12,4.23,5.15
10.314,1.75,-1.60,3.72,4.42
10.324,1.02,-1.85,3.25,3.87
10.334,0.51,-1.37,2.28,2.71
10.344,0.60,-0.91,1.78,2.09
10.354,1.33,-0.32,1.64,2.13
10.364,2.40,0.05,1.71,2.95
10.374,3.58,-0.06,2.10,4.15
10.384,4.56,-0.60,2.41,5.19
10.394,5.10,-1.02,2.42,5.74
10.404,5.06,-1.31,1.87,5.55
10.414,4.31,-1.43,1.15,4.69
10.424,2.96,-1.73,0.93,3.55
10.434,1.40,-2.18,0.87,2.73
10.444,0.19,-2.29,0.48,2.35
10.454,-0.56,-2.07,-0.86,2.31
10.464,-0.91,-1.61,-2.44,3.06
10.474,-0.93,-0.91,-3.11,3.37
10.484,-0.82,-0.28,-3.20,3.31
10.494,-0.80,0.14,-2.91,3.02
10.504,-1.61,-1.27,-3.03,3.66
10.514,-4.10,-1.76,-4.17,6.11
10.524,-3.93,4.38,-3.69,6.94
10.534,-0.89,8.58,-1.33,8.73
10.544,0.01,7.33,-1.19,7.42
10.554,-1.19,3.76,-1.78,4.33
10.564,-1.84,2.17,0.25,2.86
10.574,-0.62,3.18,1.30,3.49
10.584,-0.20,3.50,-0.46,3.53
10.594,-0.27,2.74,-1.00,2.93
10.604,0.09,2.23,-0.92,2.41
10.614,0.23,2.20,-0.63,2.30
10.624,0.58,2.12,-0.34,2.22
10.634,1.56,1.39,-0.06,2.09
10.644,2.56,0.17,-0.54,2.62
10.654,2.85,-0.96,-1.23,3.25
10.664,2.52,-1.69,-1.25,3.28
10.673,1.94,-2.07,-1.15,3.06
10.683,1.37,-2.20,-0.96,2.77
10.693,0.96,-2.28,-0.78,2.59
10.704,0.68,-2.28,-0.86,2.53
10.713,0.36,-2.10,-0.56,2.21
10.724,-0.02,-1.65,-0.09,1.65
10.733,-0.38,-0.91,-0.78,1.25
10.744,-0.88,-0.64,-0.84,1.37
10.753,-1.31,0.32,-0.08,1.35
10.763,-1.55,0.93,1.13,2.13
10.773,-1.58,1.09,1.01,2.18
10.783,-1.54,0.73,0.71,1.85
10.793,-1.37,-0.21,0.64,1.53
10.803,-1.04,-1.10,0.80,1.71
10.813,-0.63,-1.89,0.51,2.06
10.823,-0.23,-2.48,-0.20,2.50
10.833,0.09,-2.98,-0.42,3.01
10.843,0.35,-3.38,-0.14,3.40
10.853,0.61,-3.58,-0.06,3.64
10.863,0.98,-3.57,-0.46,3.73
10.873,1.47,-3.51,-0.97,3.92
10.883,1.76,-3.28,-1.56,4.04
10.893,1.77,-2.90,-2.01,3.95
10.903,1.48,-2.19,-2.22,3.45
10.913,0.90,-1.41,-1.86,2.50
10.923,0.18,-0.92,-1.18,1.51
10.933,-0.40,-0.83,-0.43,1.02
10.943,-0.59,-1.27,-0.21,1.42
10.953,-0.42,-2.07,-0.57,2.19
10.963,-0.02,-2.70,-1.18,2.95
10.973,0.44,-2.99,-1.80,3.52
10.983,0.73,-2.93,-2.32,3.81
10.993,0.63,-2.82,-3.20,4.31
11.003,0.25,-2.59,-4.29,5.02
11.013,-0.33,-2.33,-5.02,5.54
11.023,-1.00,-2.10,-5.21,5.71
11.033,-1.36,-2.04,-4.46,5.09
11.043,-1.53,-2.40,-3.20,4.28
11.053,-1.96,-2.68,-2.16,3.96
11.063,-2.33,-3.23,-1.91,4.42
11.073,-1.88,-4.39,-2.11,5.22
11.083,-0.68,-5.37,-2.35,5.90
11.093,0.87,-5.23,-2.74,5.97
11.103,2.23,-4.39,-2.86,5.69
11.113,3.01,-3.58,-2.88,5.49
11.123,3.15,-3.18,-3.36,5.59
11.133,2.97,-3.17,-4.17,6.02
11.143,2.85,-3.15,-4.94,6.52
11.153,2.75,-2.71,-5.30,6.56
11.163,2.88,-1.62,-5.41,6.34
11.173,2.85,0.28,-4.72,5.52
11.183,2.84,3.33,-4.51,6.29
11.193,2.61,8.43,-5.17,10.23
11.203,1.02,12.74,-3.49,13.25
11.213,-1.15,14.03,-1.69,14.18
11.224,-2.66,13.05,-1.36,13.39
11.233,-3.32,10.97,-0.18,11.46
11.243,-2.53,7.63,1.71,8.22
11.253,-1.74,4.43,3.75,6.06
11.263,-1.03,2.01,3.69,4.33
11.272,-0.16,-0.09,1.66,1.67
11.283,0.71,-2.17,-0.12,2.29
11.292,1.27,-4.26,-0.76,4.51
11.303,1.42,-4.33,-1.92,4.94
11.313,1.68,-3.67,-4.03,5.70
11.323,2.23,-2.93,-4.84,6.08
11.333,2.50,-1.76,-5.02,5.88
11.342,2.65,-0.60,-4.98,5.67
11.353,2.94,0.15,-4.52,5.40
11.362,3.34,0.68,-3.74,5.06
11.372,3.82,1.10,-2.73,4.82
11.382,4.30,1.68,-1.83,4.97
11.392,4.79,1.77,-0.83,5.18
11.402,5.23,1.56,-0.04,5.45
11.412,5.39,1.22,-0.08,5.53
11.422,5.29,0.75,-0.47,5.36
11.432,5.00,0.31,-0.61,5.05
11.442,4.54,0.04,-0.52,4.57
11.452,3.96,-0.05,-0.32,3.98
11.462,3.40,-0.03,-0.21,3.40
11.472,2.96,0.01,-0.16,2.97
11.482,2.57,-0.00,-0.03,2.57
11.492,1.97,-0.08,0.31,2.00
11.502,1.28,-0.34,0.69,1.49
11.512,0.63,-0.83,0.84,1.34
11.522,-0.01,-1.40,0.49,1.48
11.532,-0.64,-2.18,0.01,2.27
11.542,-1.23,-3.02,-0.63,3.33
11.552,-1.50,-3.46,-2.61,4.59
11.562,-0.94,-3.98,-4.73,6.25
11.572,0.25,-5.06,-5.59,7.54
11.582,1.33,-5.27,-4.78,7.24
11.592,2.62,-3.18,-3.68,5.53
11.602,4.15,-0.25,-3.51,5.44
11.612,4.75,1.92,-3.56,6.24
11.622,3.82,2.76,-3.47,5.85
11.632,2.41,2.82,-2.72,4.60
11.642,0.87,3.35,-1.33,3.70
11.652,0.28,4.90,-0.26,4.92
11.662,-0.13,8.19,1.19,8.27
11.672,-2.23,12.31,3.63,13.03
11.682,-3.50,13.49,7.38,15.76
11.692,-1.99,10.98,8.93,14.29
11.702,0.81,7.15,5.88,9.29
11.712,2.93,3.86,2.22,5.33
11.722,3.39,1.22,0.64,3.66
11.732,2.91,-1.29,0.38,3.21
11.742,2.03,-3.26,0.05,3.84
11.752,1.25,-3.33,-2.12,4.14
11.762,0.63,-2.44,-7.19,7.62
11.772,0.36,-1.64,-11.34,11.46
11.782,1.76,0.63,-9.05,9.24
11.792,2.63,2.23,-3.66,5.03
11.802,3.14,3.18,1.53,4.72
11.812,3.79,2.09,4.14,5.99
11.822,4.16,-0.12,2.93,5.09
11.832,4.07,-1.43,0.73,4.37
11.842,3.46,-1.42,-0.96,3.87
11.852,2.56,-1.21,-2.24,3.62
11.862,1.40,-0.81,-1.46,2.18
11.872,0.51,-0.06,-0.77,0.93
11.881,-0.09,0.32,-0.89,0.95
11.892,-0.38,0.33,-1.02,1.14
11.902,-0.42,0.13,-0.95,1.04
11.912,-0.27,-0.25,-0.69,0.78
11.921,-0.13,-0.58,-0.59,0.84
11.931,0.07,-0.80,-0.57,0.99
11.941,0.16,-0.91,-0.90,1.29
11.951,0.19,-1.10,-0.97,1.48
11.961,0.14,-1.43,-0.94,1.71
11.971,-0.23,-1.57,-1.13,1.95
11.982,-0.77,-1.65,-1.43,2.32
11.991,-1.16,-1.94,-1.87,2.94
12.002,-1.23,-2.55,-2.44,3.74
12.012,-0.93,-3.07,-2.74,4.22
12.021,-0.51,-3.20,-2.62,4.17
12.031,-0.14,-2.89,-2.36,3.73
12.041,0.23,-2.26,-2.13,3.11
12.051,0.77,-1.42,-1.98,2.55
12.062,1.30,-0.42,-1.80,2.26
12.071,1.66,0.81,-1.43,2.34
12.081,1.79,2.29,-1.06,3.09
12.092,1.81,3.96,-1.16,4.51
12.101,2.13,5.45,-1.84,6.13
12.111,2.76,6.03,-2.51,7.09
12.121,2.94,5.74,-2.64,6.97
12.131,2.50,5.35,-2.43,6.38
12.141,1.48,5.07,-1.62,5.52
12.151,-0.01,4.54,-0.84,4.62
12.161,-1.70,3.47,-0.58,3.91
12.171,-3.35,2.03,-0.64,3.96
12.181,-4.63,0.58,-0.71,4.72
12.191,-5.16,-0.50,-0.67,5.23
12.201,-4.83,-0.72,-0.97,4.98
12.211,-4.10,0.23,-1.84,4.50
12.221,-3.27,0.73,-1.91,3.86
12.231,-2.29,1.06,-2.75,3.73
12.241,-1.07,1.24,-2.99,3.41
12.251,-0.05,1.05,-2.95,3.13
12.261,0.21,0.30,-2.81,2.83
12.271,0.42,-0.38,-2.34,2.40
12.281,0.58,-0.87,-1.91,2.18
12.291,0.63,-0.19,-1.53,1.66
12.301,0.60,1.23,0.09,1.37
12.311,0.54,1.70,1.47,2.32
12.321,0.21,1.70,1.09,2.03
12.331,-0.45,2.03,0.76,2.21
12.341,-0.56,2.58,0.28,2.66
12.351,0.05,2.72,-0.15,2.72
12.361,0.89,2.18,0.22,2.37
12.371,1.82,1.16,0.18,2.17
12.381,2.73,0.44,-0.07,2.77
12.391,3.57,0.44,0.13,3.60
12.401,4.09,0.44,0.66,4.17
12.411,4.08,0.44,1.40,4.33
12.421,3.68,0.48,2.12,4.27
12.431,3.14,0.48,2.51,4.05
12.441,2.61,0.37,2.87,3.89
12.451,2.23,0.41,3.18,3.91
12.461,2.25,0.50,3.43,4.13
12.471,2.67,0.71,3.57,4.52
12.481,3.33,0.85,3.75,5.08
12.490,3.87,0.65,3.83,5.48
12.501,4.15,0.46,3.88,5.70
12.511,4.10,0.12,3.53,5.41
12.521,3.56,-0.38,2.71,4.49
12.530,2.78,-1.10,1.80,3.49
12.541,2.07,-1.70,0.37,2.70
12.551,1.74,-1.86,-0.43,2.58
12.561,2.21,-1.99,-0.42,3.00
12.570,3.05,-2.16,-0.18,3.74
12.580,3.37,-2.15,-0.39,4.02
12.591,3.12,-1.77,-1.49,3.88
12.600,2.57,-0.80,-2.34,3.56
12.611,1.78,0.67,-2.69,3.29
12.620,0.98,1.91,-2.83,3.55
12.630,0.31,2.87,-2.97,4.14
12.640,-0.50,3.57,-3.17,4.80
12.650,-1.84,5.05,-4.01,6.70
12.661,-2.93,7.03,-4.66,8.93
12.670,-2.86,7.02,-4.49,8.81
12.680,-2.30,5.48,-2.69,6.52
12.690,-1.94,4.66,-0.23,5.06
12.700,-2.03,5.01,2.08,5.79
12.710,-2.37,4.80,3.15,6.21
12.720,-2.01,3.45,2.42,4.67
12.730,-0.83,1.78,1.23,2.32
12.740,0.68,0.69,0.19,0.98
12.750,2.34,0.14,-0.46,2.39
12.760,3.75,-0.08,-0.73,3.82
12.770,4.58,-0.13,-0.79,4.65
12.780,4.81,-0.35,-0.63,4.87
12.790,4.50,-0.94,-0.13,4.60
12.800,3.91,-1.33,0.33,4.14
12.810,3.13,-2.00,0.63,3.77
12.820,2.16,-2.78,0.57,3.57
12.830,1.18,-3.32,0.53,3.56
12.840,0.40,-3.34,0.06,3.37
12.850,-0.18,-3.36,-1.01,3.52
12.860,-0.72,-3.39,0.02,3.46
12.870,-0.92,-2.68,0.49,2.87
12.880,-0.95,-1.71,0.68,2.07
12.890,-0.99,-0.57,1.23,1.67
12.900,-1.10,0.27,1.43,1.82
12.910,-1.19,0.88,1.57,2.15
12.920,-0.84,0.73,0.99,1.49
12.930,-0.17,-0.12,-0.06,0.22
12.940,0.58,-0.99,-0.33,1.20
12.950,1.35,-1.36,-0.18,1.93
12.960,2.10,-1.25,-0.17,2.45
12.970,2.72,-0.95,-0.53,2.93
12.980,3.38,-0.67,-1.01,3.59
12.990,3.69,-0.22,-1.55,4.01
13.000,3.35,0.55,-1.75,3.82
13.010,2.29,1.50,-1.04,2.93
13.020,0.66,2.14,0.06,2.24
13.030,-0.77,1.84,0.85,2.17
13.040,-1.56,1.02,1.15,2.19
13.050,-1.70,-0.49,0.92,1.99
13.060,-1.88,-1.40,0.77,2.47
13.070,-1.93,-1.74,0.92,2.76
13.080,-1.68,-1.81,0.82,2.60
13.089,-1.19,-1.60,0.25,2.01
13.100,-0.53,-1.31,-0.29,1.44
13.109,0.10,-0.94,-0.78,1.23
13.120,0.53,-0.61,-1.19,1.44
13.129,0.66,-0.43,-1.12,1.37
13.140,0.64,-0.11,-0.69,0.95
13.150,0.47,0.26,-0.11,0.55
13.160,0.22,0.22,0.18,0.36
13.169,0.15,-0.23,0.11,0.29
13.180,0.08,-0.60,0.26,0.66
13.189,0.13,-0.76,0.24,0.81
13.200,0.21,-0.77,-0.59,0.99
13.209,-0.20,-0.81,-1.57,1.78
13.219,-0.87,-0.66,-1.66,1.99
13.229,-0.92,-0.36,-1.41,1.72
13.239,-0.41,-0.10,-1.47,1.53
13.249,0.21,0.33,-2.04,2.08
13.259,0.71,0.95,-2.75,3.00
13.269,1.15,1.43,-3.57,4.01
13.279,1.25,1.69,-3.84,4.38
13.289,0.43,2.10,-2.57,3.34
13.299,-0.41,2.11,-1.66,2.72
13.309,-0.67,1.87,-1.40,2.43
13.319,-0.36,2.04,-1.06,2.33
13.329,0.32,2.68,-0.78,2.81
13.339,0.60,3.28,-0.72,3.41
13.349,-0.08,3.70,-0.59,3.75
13.360,-1.87,3.82,-0.78,4.32
13.369,-3.81,3.41,-1.58,5.35
13.379,-5.04,2.68,-2.16,6.10
13.389,-5.36,1.65,-1.63,5.84
13.399,-4.98,0.37,-0.73,5.05
13.409,-4.23,-0.24,-0.41,4.25
13.419,-3.27,-0.48,0.70,3.38
13.429,-2.36,-0.55,0.85,2.57
13.439,-1.60,0.10,0.45,1.67
13.449,-1.09,0.66,0.58,1.40
13.459,-0.91,0.61,0.80,1.36
13.469,-0.88,0.13,0.58,1.06
13.479,-0.72,-0.61,-0.40,1.02
13.489,-0.28,-1.26,-1.91,2.30
13.499,0.14,-1.88,-2.68,3.28
13.509,0.70,-2.40,-1.88,3.13
13.519,1.24,-2.35,-0.74,2.76
13.529,1.59,-2.07,0.08,2.61
13.539,1.31,-1.40,0.77,2.06
13.549,0.73,-0.06,1.51,1.68
13.559,0.58,1.27,1.65,2.16
13.569,0.77,2.01,1.47,2.61
13.579,1.07,2.40,1.20,2.89
13.589,1.31,2.92,1.26,3.44
13.599,1.36,3.16,1.47,3.74
13.609,1.10,2.73,1.48,3.30
13.619,0.74,1.81,1.42,2.42
13.629,0.46,0.99,1.68,2.00
13.639,0.61,0.53,2.04,2.19
13.649,1.13,0.07,2.25,2.52
13.659,1.64,-0.17,2.57,3.05
13.669,2.12,-0.39,2.66,3.42
13.679,2.58,-0.57,2.66,3.75
13.689,2.90,-0.36,2.66,3.95
13.699,2.98,-0.35,2.50,3.90
13.709,2.82,-0.35,2.30,3.66
13.719,2.68,-0.15,2.11,3.41
13.729,2.70,-0.14,1.87,3.29
13.739,2.74,-0.20,1.70,3.23
13.748,2.79,-0.49,1.48,3.20
13.759,2.90,-1.12,1.10,3.30
13.769,2.99,-1.58,0.76,3.47
13.779,3.01,-1.90,0.64,3.61
13.789,2.85,-1.90,0.86,3.53
13.799,2.55,-1.85,0.95,3.29
13.809,2.17,-1.83,0.94,2.99
13.819,1.67,-1.72,0.69,2.49
13.829,0.87,-1.42,-0.12,1.67
13.839,-0.10,-0.86,-1.30,1.56
13.848,-0.95,0.06,-2.13,2.33
13.858,-1.53,1.10,-2.52,3.15
13.869,-1.98,1.65,-2.70,3.73
13.879,-3.14,0.80,-3.46,4.75
13.888,-6.47,-0.56,-4.78,8.06
13.898,-9.20,3.30,-5.67,11.29
13.908,-7.59,6.98,-3.53,10.90
13.918,-4.38,6.36,-0.11,7.73
13.928,-1.09,5.17,1.75,5.57
13.938,2.48,4.09,1.74,5.09
13.948,4.61,2.83,-0.25,5.42
13.958,4.08,0.37,-1.85,4.50
13.969,1.41,-1.20,-2.16,2.85
13.978,-0.57,1.45,-1.53,2.18
13.988,-1.58,3.82,-0.39,4.15
13.998,-1.86,4.53,-0.08,4.89
14.008,-0.55,4.17,-0.19,4.21
14.018,1.75,2.91,-0.14,3.40
14.028,3.72,1.25,-0.09,3.92
14.038,4.61,-0.14,0.17,4.62
14.048,4.48,-1.13,0.31,4.63
14.058,3.85,-1.90,-0.08,4.29
14.068,3.01,-2.42,-0.47,3.89
14.078,1.99,-2.32,-0.48,3.09
14.088,0.92,-1.76,-0.08,1.99
14.098,0.14,-1.27,0.46,1.35
14.108,-0.11,-0.69,-0.21,0.73
14.118,-0.50,0.06,-0.09,0.51
14.128,-0.84,0.71,0.38,1.16
14.138,-0.90,1.73,0.61,2.04
14.148,-0.92,2.45,1.25,2.90
14.158,-0.74,2.33,1.41,2.82
14.168,-0.51,1.65,1.66,2.39
14.178,-0.08,0.25,1.08,1.11
14.188,0.46,-1.24,0.79,1.54
14.198,0.69,-2.18,1.31,2.64
14.208,0.84,-2.44,1.24,2.87
14.218,1.06,-2.18,0.84,2.56
14.228,1.23,-1.77,0.56,2.23
14.238,1.43,-1.61,0.34,2.18
14.248,1.56,-1.57,-0.20,2.22
14.258,1.46,-1.62,-0.53,2.24
14.268,1.04,-1.49,-0.52,1.89
14.278,0.53,-1.27,-0.74,1.56
14.288,-0.02,-1.23,-0.81,1.48
14.298,-0.65,-1.49,-0.18,1.63
14.308,-1.23,-1.95,0.35,2.33
14.318,-1.66,-2.31,0.18,2.85
14.328,-2.09,-2.44,-0.40,3.24
14.338,-2.48,-2.52,-1.01,3.68
14.348,-2.63,-2.66,-1.45,4.01
14.358,-2.63,-2.72,-1.28,4.00
14.368,-2.38,-2.58,-0.96,3.64
14.378,-1.86,-2.16,-1.08,3.05
14.388,-1.41,-1.62,-1.71,2.74
14.398,-1.19,-1.10,-2.30,2.81
14.408,-1.18,-0.58,-2.51,2.84
14.418,-1.26,-0.05,-2.36,2.68
14.428,-1.20,0.53,-1.97,2.37
14.438,-0.86,1.09,-1.81,2.28
14.447,-0.63,1.89,-1.44,2.46
14.458,-1.06,3.16,-0.47,3.36
14.468,-2.00,4.47,-0.39,4.91
14.478,-3.02,5.46,-1.21,6.36
14.488,-3.74,5.36,-1.86,6.79
14.498,-3.74,4.09,-2.30,6.00
14.508,-3.09,2.27,-2.39,4.52
14.518,-2.32,0.40,-1.96,3.06
14.528,-1.77,-1.14,-1.49,2.58
14.538,-1.35,-2.02,-1.58,2.90
14.547,-0.83,-1.95,-1.97,2.90
14.557,-0.08,-0.85,-2.31,2.46
14.568,0.25,0.81,-1.27,1.53
14.577,0.27,1.88,-1.82,2.63
14.587,0.08,1.64,-1.84,2.47
14.598,-0.28,0.46,-0.47,0.72
14.607,-0.77,-1.21,0.14,1.44
14.617,-1.51,-3.19,-1.45,3.82
14.628,-2.10,-3.14,-2.92,4.78
14.637,-2.32,-1.10,-0.94,2.73
14.647,-1.70,1.61,0.75,2.46
14.657,-0.86,4.17,1.88,4.65
14.667,-0.12,5.64,2.62,6.22
14.677,0.31,5.46,2.44,5.99
14.687,0.35,3.98,2.05,4.49
14.697,0.53,2.39,1.76,3.01
14.707,1.27,1.47,1.54,2.48
14.717,2.47,1.02,1.35,2.99
14.727,3.70,1.23,1.41,4.15
14.737,4.43,1.12,2.10,5.03
14.747,4.20,0.59,2.98,5.18
14.757,3.30,0.06,3.64,4.91
14.767,2.32,-0.42,3.34,4.09
14.777,1.63,-0.55,2.98,3.44
14.787,1.31,-0.42,2.56,2.90
14.797,1.27,-0.14,2.29,2.62
14.807,1.47,0.07,2.34,2.76
14.817,2.01,0.46,2.61,3.33
14.827,2.70,0.71,2.91,4.03
14.837,3.19,0.57,3.26,4.60
14.847,3.48,0.08,3.29,4.79
14.857,3.55,-0.19,2.87,4.57
14.867,3.45,-0.34,2.31,4.17
14.877,3.07,-0.80,1.27,3.42
14.887,2.37,-1.44,-0.22,2.78
14.897,1.72,-2.20,-1.23,3.05
14.907,1.53,-2.80,-1.68,3.60
14.917,1.63,-2.96,-2.25,4.07
14.927,1.46,-2.52,-2.73,3.99
14.937,1.03,-1.73,-2.72,3.39
14.947,0.35,-1.18,-2.58,2.86
14.957,-1.28,-0.76,-3.24,3.56
14.967,-3.76,1.25,-3.19,5.09
14.977,-5.06,5.38,-2.86,7.92
14.987,-4.69,8.66,-2.77,10.23
14.997,-3.69,6.93,-2.91,8.37
15.007,-2.56,2.72,-2.72,4.62
15.017,-0.95,1.58,-1.35,2.29
15.027,0.69,2.22,-0.14,2.33
15.037,1.37,2.64,0.33,2.99
15.047,1.35,2.39,0.36,2.77
15.057,1.02,2.12,0.01,2.35
15.067,0.49,2.39,-0.78,2.56
15.077,0.07,2.75,-1.09,2.96
15.087,0.36,2.75,-0.55,2.83
15.097,1.43,2.07,-0.16,2.52
15.106,2.60,0.92,-0.41,2.79
15.117,3.47,-0.20,-0.44,3.51
15.126,3.84,-1.19,-0.43,4.05
15.137,3.51,-1.97,-0.24,4.03
15.146,2.73,-2.37,-0.22,3.63
15.157,1.77,-2.58,0.17,3.14
15.166,0.89,-2.36,0.29,2.54
15.177,0.40,-1.99,-0.77,2.17
15.186,0.13,-1.51,-1.64,2.24
15.197,-0.42,-0.96,-0.20,1.07
15.206,-0.75,0.04,0.67,1.00
15.216,-1.04,1.38,1.09,2.04
15.226,-1.25,2.23,1.42,2.93
15.237,-1.16,2.30,1.64,3.05
15.246,-0.72,1.50,1.84,2.49
15.256,-0.16,0.08,1.89,1.90
15.266,0.27,-1.18,1.95,2.30
15.276,0.58,-2.17,1.25,2.57
15.286,0.61,-2.63,0.80,2.82
15.296,0.54,-2.61,0.64,2.74
15.306,0.77,-2.44,0.86,2.70
15.316,1.18,-2.14,0.48,2.50
15.326,1.51,-1.80,-0.48,2.39
15.336,1.65,-1.38,-1.05,2.40
15.346,1.60,-0.78,-0.70,1.91
15.356,1.25,-0.38,-0.01,1.31
15.366,0.96,-0.61,-0.16,1.15
15.376,0.63,-1.09,-1.12,1.69
15.386,-0.31,-1.25,-1.50,1.98
15.396,-1.59,-1.50,-1.16,2.47
15.406,-2.54,-1.79,-0.47,3.14
15.416,-2.73,-2.09,-0.29,3.45
15.426,-2.31,-2.23,-0.65,3.28
15.436,-1.75,-2.09,-1.33,3.03
15.446,-1.14,-1.77,-2.02,2.92
15.456,-0.61,-1.29,-2.43,2.81
15.466,-0.29,-0.70,-2.82,2.92
15.476,-0.22,-0.08,-3.27,3.28
15.486,-0.26,0.48,-3.48,3.53
15.496,-0.35,0.93,-3.79,3.92
15.506,-0.31,1.38,-3.92,4.17
15.516,-0.70,2.11,-2.95,3.70
15.526,-2.00,3.15,-1.29,3.95
15.536,-3.77,3.74,-0.51,5.33
15.546,-5.05,3.38,-0.27,6.08
15.556,-5.48,2.68,0.10,6.10
15.566,-5.08,1.87,-0.39,5.43
15.576,-4.10,1.22,-1.70,4.60
15.586,-3.02,0.47,-2.58,3.99
15.596,-1.92,-0.50,-2.33,3.06
15.606,-0.73,-0.99,-2.57,2.85
15.616,0.00,-0.93,-1.82,2.04
15.626,0.21,-0.54,-0.78,0.97
15.636,0.10,0.30,-1.05,1.10
15.646,-0.25,0.56,-0.60,0.86
15.656,-0.59,0.26,0.55,0.84
15.666,-0.63,-0.16,0.66,0.93
15.676,-1.01,-1.34,-0.42,1.73
15.686,-1.48,-1.41,-2.06,2.90
15.696,-1.53,0.30,-1.51,2.17
15.706,-1.12,2.54,-0.17,2.78
15.716,-0.46,4.56,1.20,4.74
15.726,0.30,5.34,1.51,5.56
15.736,0.90,4.87,1.61,5.20
15.745,1.24,3.40,1.79,4.04
15.756,1.43,2.01,1.72,3.01
15.765,1.88,1.37,1.47,2.76
15.776,2.76,1.48,1.34,3.41
15.786,3.59,1.45,1.66,4.21
15.796,3.66,0.93,2.18,4.36
15.805,2.81,0.45,2.89,4.06
15.816,1.77,-0.01,2.98,3.47
15.825,0.97,-0.24,2.84,3.02
15.836,0.57,-0.26,2.74,2.81
15.845,0.57,-0.53,2.17,2.30
15.856,0.89,-0.40,1.83,2.07
15.865,1.42,-0.23,1.98,2.45
15.875,1.99,-0.33,2.38,3.13
15.886,2.58,-0.60,2.77,3.83
15.895,3.15,-0.90,2.94,4.40
15.905,3.63,-0.98,2.83,4.71
15.916,3.88,-1.20,2.26,4.65
15.925,3.60,-1.65,1.17,4.13
15.936,2.93,-2.09,0.14,3.60
15.945,2.37,-2.47,0.11,3.42
15.955,2.27,-2.71,0.37,3.55
15.965,2.27,-2.70,-0.21,3.54
15.975,2.10,-2.29,-1.28,3.36
15.985,1.66,-1.44,-1.80,2.84
15.996,1.07,-0.08,-1.83,2.12
16.005,0.37,0.83,-2.51,2.67
16.015,-1.12,0.84,-3.84,4.08
16.025,-3.33,2.20,-4.52,6.03
16.035,-4.08,5.60,-4.44,8.23
16.045,-2.97,6.68,-2.66,7.78
16.055,-2.19,4.65,-1.14,5.26
16.065,-1.81,3.66,-0.57,4.13
16.075,-0.41,4.09,1.21,4.29
16.085,0.87,4.59,1.36,4.86
16.095,1.24,3.94,0.19,4.13
16.105,0.74,2.55,-0.57,2.72
16.115,0.16,2.44,-0.65,2.53
16.125,-0.02,3.33,-0.44,3.36
16.135,0.33,3.42,-0.24,3.44
16.145,1.49,2.77,-0.13,3.15
16.155,2.95,1.90,-0.40,3.53
16.165,4.02,0.88,-0.44,4.14
16.175,4.43,-0.15,-0.09,4.43
16.185,4.19,-1.06,-0.03,4.32
16.195,3.55,-1.68,-0.31,3.93
16.205,2.61,-2.07,-0.39,3.35
16.215,1.54,-2.09,-0.36,2.62
16.225,0.48,-2.05,0.14,2.11
16.235,-0.12,-1.89,-0.25,1.91
16.245,-0.48,-1.40,-1.26,1.94
16.255,-1.14,-0.37,-0.33,1.24
16.265,-1.67,0.68,0.76,1.96
16.275,-2.11,1.63,1.22,2.94
16.285,-2.35,1.94,1.74,3.51
16.295,-1.91,1.77,1.85,3.20
16.305,-0.88,0.57,1.36,1.71
16.314,-0.07,-0.84,1.37,1.61
16.325,0.52,-1.82,0.94,2.11
16.335,0.97,-2.48,0.18,2.67
16.345,1.17,-2.62,-0.33,2.89
16.355,1.27,-2.42,-0.81,2.85
16.365,1.43,-2.06,-0.70,2.60
16.374,1.50,-1.77,-0.25,2.33
16.385,1.38,-1.61,-0.42,2.16
16.395,1.07,-1.61,-0.90,2.13
16.405,0.65,-1.76,-1.53,2.42
16.414,0.07,-1.88,-1.64,2.49
16.425,-0.89,-2.02,-0.95,2.40
16.435,-2.03,-2.35,-0.23,3.11
16.445,-2.73,-2.82,-0.05,3.92
16.454,-2.94,-3.07,-0.31,4.26
16.465,-2.93,-3.01,-0.36,4.21
16.475,-2.70,-2.97,-0.69,4.07
16.485,-2.18,-2.97,-1.32,3.92
16.495,-1.52,-2.66,-1.87,3.58
16.504,-0.89,-2.01,-2.44,3.29
16.515,-0.38,-1.19,-2.64,2.92
16.524,-0.04,-0.42,-2.45,2.48
16.534,0.13,0.09,-2.22,2.22
16.544,0.33,0.46,-2.11,2.19
16.554,0.66,0.92,-2.12,2.40
16.564,0.66,1.94,-1.73,2.68
16.574,0.12,3.45,-1.21,3.66
16.584,-0.65,4.91,-1.16,5.09
16.594,-1.29,5.70,-1.23,5.97
16.604,-1.73,5.85,-0.82,6.16
16.614,-2.23,5.32,-0.43,5.78
16.624,-2.87,4.19,-0.69,5.13
16.635,-3.77,2.88,-0.68,4.79
16.644,-4.57,1.34,-0.17,4.77
16.654,-4.86,-0.14,-0.63,4.91
16.664,-4.54,-0.90,-1.48,4.86
16.674,-3.80,-1.15,-0.85,4.06
16.684,-2.90,-0.88,-0.47,3.07
16.694,-2.02,-0.46,-1.36,2.47
16.704,-1.25,-0.99,-1.88,2.46
16.714,-0.57,-2.34,-1.38,2.78
16.724,0.06,-4.02,-1.25,4.21
16.734,0.09,-5.56,-2.05,5.93
16.744,-0.30,-4.45,-2.64,5.18
16.754,-0.57,-1.09,-1.08,1.63
16.764,-0.57,2.76,0.94,2.97
16.774,-0.27,5.45,1.93,5.79
16.784,-0.00,6.86,1.98,7.14
16.794,0.09,6.72,1.41,6.87
16.804,-0.07,5.25,1.55,5.47
16.814,-0.45,2.98,1.89,3.55
16.824,-0.40,1.24,1.68,2.12
16.834,0.59,0.63,1.17,1.45
16.844,1.89,0.63,1.24,2.35
16.854,2.70,0.33,1.90,3.32
16.864,2.54,0.07,2.88,3.84
16.874,2.00,-0.11,3.66,4.17
16.884,1.61,-0.23,3.71,4.05
16.894,1.44,-0.10,3.46,3.75
16.904,1.66,-0.08,2.78,3.23
16.914,2.10,0.29,2.35,3.16
16.924,2.68,0.76,2.37,3.66
16.934,3.33,0.88,2.82,4.46
16.944,3.88,0.76,3.61,5.35
16.954,4.19,0.24,3.92,5.75
16.964,4.30,-0.32,3.41,5.50
16.974,4.10,-0.47,2.57,4.86
16.984,3.45,-0.25,1.53,3.78
16.994,2.42,-0.53,-0.02,2.48
17.004,1.51,-1.14,-0.66,2.00
17.014,1.08,-1.58,-0.29,1.93
17.024,1.23,-2.03,-0.49,2.43
17.034,1.67,-2.19,-1.48,3.12
17.044,1.87,-1.96,-2.71,3.83
17.054,1.79,-1.59,-2.99,3.83
17.064,1.35,-2.30,-3.35,4.28
17.074,-1.05,-3.42,-5.11,6.24
17.084,-4.52,0.38,-6.47,7.90
17.094,-5.36,7.07,-5.08,10.22
17.104,-4.86,9.11,-1.77,10.48
17.113,-4.62,6.62,0.87,8.12
17.123,-4.15,3.93,1.87,6.02
17.133,-2.37,2.65,1.74,3.96
17.144,0.24,1.59,0.05,1.61
17.153,1.81,0.42,-1.90,2.66
17.164,2.00,-0.47,-2.53,3.26
17.173,1.75,0.42,-2.10,2.77
17.183,1.14,2.45,-1.24,2.97
17.193,0.74,3.71,-0.03,3.78
17.203,1.02,3.96,0.68,4.14
17.213,1.75,3.37,0.79,3.88
17.223,2.46,2.26,0.44,3.36
17.233,2.74,0.94,0.30,2.92
17.243,2.66,-0.22,0.15,2.67
17.253,2.40,-0.96,-0.07,2.58
17.263,2.08,-1.39,-0.35,2.52
17.273,1.67,-1.47,-0.41,2.26
17.283,1.25,-1.37,0.01,1.86
17.293,0.94,-1.26,0.69,1.71
17.303,1.04,-1.08,-0.15,1.51
17.313,0.90,-0.70,-0.99,1.50
17.323,0.27,-0.14,-0.20,0.37
17.333,-0.23,0.46,0.63,0.82
17.343,-0.54,0.99,0.54,1.25
17.353,-0.95,1.27,0.81,1.78
17.363,-1.14,1.29,1.22,2.11
17.373,-0.99,0.74,1.51,1.95
17.383,-0.63,-0.59,1.75,1.95
17.393,-0.04,-1.63,0.89,1.86
17.403,0.45,-2.20,0.44,2.29
17.413,0.78,-2.44,0.83,2.69
17.423,1.04,-2.45,0.71,2.75
17.433,1.32,-2.42,0.12,2.76
17.443,1.71,-2.56,-0.52,3.12
17.453,1.85,-2.36,-0.67,3.07
17.463,1.75,-1.91,-0.70,2.68
17.473,1.48,-1.39,-0.62,2.12
17.483,1.08,-1.04,-0.79,1.69
17.493,0.54,-1.13,-1.28,1.79
17.503,-0.27,-1.52,-1.40,2.08
17.513,-1.53,-1.95,-1.02,2.68
17.523,-2.77,-2.42,-0.52,3.72
17.533,-3.23,-2.98,-0.42,4.42
17.543,-2.86,-3.41,-0.90,4.54
17.553,-2.28,-3.35,-1.37,4.28
17.563,-1.92,-2.96,-1.64,3.89
17.573,-1.71,-2.33,-1.85,3.43
17.583,-1.59,-1.58,-2.19,3.13
17.593,-1.51,-0.72,-2.34,2.87
17.603,-1.33,0.03,-2.25,2.61
17.613,-1.05,0.46,-2.16,2.44
17.623,-0.69,0.75,-2.28,2.50
17.633,-0.28,1.14,-2.30,2.58
17.643,0.13,1.78,-1.77,2.52
17.653,0.26,2.83,-1.32,3.13
17.663,-0.50,4.28,-0.94,4.41
17.673,-2.82,5.37,0.49,6.09
17.683,-5.34,4.90,1.41,7.39
17.692,-5.85,3.61,0.86,6.93
17.703,-4.62,2.50,-0.22,5.25
17.713,-2.45,1.78,-1.84,3.54
17.723,-0.58,1.41,-3.02,3.38
17.732,0.53,1.24,-2.77,3.08
17.743,0.54,1.06,-1.99,2.32
17.752,-0.04,0.49,-1.95,2.01
17.763,-0.58,-0.41,-1.88,2.01
17.772,-0.97,-1.31,-1.06,1.94
17.782,-1.19,-2.06,0.00,2.38
17.792,-1.52,-3.41,0.33,3.75
17.802,-1.93,-4.06,-1.03,4.61
17.812,-1.94,-2.86,-1.40,3.73
17.822,-1.78,-0.06,-0.26,1.80
17.832,-1.32,2.90,0.95,3.33
17.842,-0.73,4.85,1.03,5.01
17.852,-0.41,5.55,1.04,5.66
17.862,0.03,4.95,1.30,5.12
17.872,0.49,3.53,1.59,3.90
17.882,1.00,2.09,1.82,2.95
17.892,1.90,1.24,1.45,2.69
17.902,3.14,0.98,1.04,3.45
17.912,4.41,1.04,1.34,4.73
17.922,5.17,0.53,2.18,5.64
17.932,4.95,-0.22,2.99,5.79
17.942,4.17,-0.82,3.64,5.60
17.952,3.28,-1.48,3.43,4.97
17.962,2.40,-1.47,2.97,4.09
17.972,1.62,-1.44,1.96,2.92
17.982,1.17,-1.07,0.83,1.79
17.992,1.19,-0.21,0.64,1.36
18.002,1.59,0.48,1.27,2.09
18.012,2.26,0.58,2.05,3.10
18.022,2.91,0.19,2.48,3.83
18.032,3.39,-0.16,2.28,4.09
18.042,3.69,-0.28,1.66,4.06
18.052,3.86,-0.51,1.20,4.07
18.062,3.80,-0.68,1.13,4.02
18.072,3.57,-0.74,1.27,3.86
18.082,3.22,-0.96,1.20,3.57
18.092,2.59,-1.38,0.69,3.02
18.102,1.63,-1.61,-0.39,2.32
18.112,0.70,-1.43,-1.64,2.29
18.122,-0.01,-0.85,-2.11,2.28
18.132,-0.52,-0.19,-2.05,2.12
18.142,-0.87,0.37,-2.22,2.42
18.152,-1.19,0.89,-2.43,2.85
18.162,-1.58,1.32,-2.36,3.13
18.172,-2.31,1.05,-2.42,3.50
18.182,-4.49,-0.78,-3.34,5.65
18.192,-7.24,1.11,-6.64,9.89
18.202,-5.84,7.29,-7.51,11.98
18.212,-2.82,7.79,-2.48,8.65
18.222,-0.64,5.62,1.99,6.00
18.232,1.18,5.10,2.77,5.92
18.242,2.84,4.10,1.49,5.21
18.252,2.92,2.10,-0.43,3.62
18.262,1.15,-0.17,-1.78,2.13
18.272,-0.55,0.74,-1.51,1.77
18.282,-0.88,3.27,-0.59,3.44
18.292,-0.46,4.47,0.21,4.50
18.302,0.79,4.29,0.59,4.40
18.312,2.54,3.10,0.64,4.06
18.322,3.92,1.53,0.68,4.26
18.332,4.64,-0.08,0.00,4.64
18.342,4.44,-1.71,-0.66,4.80
18.352,3.53,-2.75,-0.50,4.50
18.361,2.28,-2.82,0.03,3.63
18.372,1.08,-2.70,0.82,3.02
18.381,0.47,-2.75,0.46,2.82
18.392,-0.04,-2.57,0.08,2.57
18.401,-0.50,-1.55,-0.66,1.75
18.412,-0.99,-0.52,-1.91,2.21
18.421,-1.90,0.40,0.57,2.02
18.431,-1.92,1.34,1.93,3.03
18.441,-1.35,1.14,2.34,2.93
18.452,-0.63,0.28,1.86,1.98
18.461,-0.03,-0.85,1.34,1.59
18.472,0.30,-1.93,1.16,2.27
18.482,0.52,-2.81,0.27,2.87
18.491,0.60,-2.96,0.04,3.02
18.501,0.57,-2.69,0.08,2.75
18.512,0.48,-2.20,-0.19,2.26
18.521,0.48,-1.82,-0.40,1.93
18.531,0.59,-1.87,-0.21,1.98
18.541,0.91,-2.04,-0.39,2.26
18.551,1.28,-1.97,-1.25,2.66
18.561,1.12,-1.78,-1.98,2.89
18.571,0.12,-1.52,-1.73,2.31
18.581,-1.44,-1.14,-0.83,2.02
18.591,-2.79,-1.00,-0.32,2.98
18.601,-3.54,-1.36,0.02,3.79
18.611,-3.46,-2.10,0.32,4.06
18.621,-2.64,-2.88,0.37,3.93
18.631,-1.50,-3.25,-0.51,3.62
18.641,-0.51,-3.02,-1.92,3.61
18.651,-0.39,-2.51,-2.44,3.52
18.661,-0.95,-1.95,-2.40,3.23
18.671,-1.41,-1.44,-2.38,3.12
18.681,-1.66,-0.92,-2.17,2.88
18.691,-1.74,-0.45,-1.73,2.50
18.701,-1.65,0.01,-1.14,2.00
18.711,-1.26,0.47,-0.78,1.56
18.721,-0.58,1.09,-0.75,1.45
18.731,-0.31,2.12,-0.61,2.22
18.741,-0.87,3.24,-0.40,3.38
18.751,-1.90,4.02,-0.90,4.54
18.761,-2.53,4.54,-1.95,5.55
18.771,-2.37,4.99,-2.44,6.03
18.781,-1.80,5.21,-2.59,6.09
18.791,-1.43,4.76,-2.32,5.48
18.801,-1.60,3.68,-1.40,4.25
18.811,-2.15,2.24,-0.44,3.14
18.821,-2.82,0.89,0.25,2.97
18.831,-3.05,-0.09,0.05,3.05
18.841,-2.74,-0.45,-1.73,3.27
18.851,-2.29,-0.03,-2.56,3.44
18.861,-1.90,0.33,-2.68,3.30
18.871,-1.45,0.27,-3.04,3.38
18.881,-0.98,-0.57,-2.69,2.92
18.891,-0.46,-2.18,-1.84,2.89
18.901,-0.02,-4.51,-1.38,4.72
18.911,0.06,-6.29,-2.28,6.69
18.921,0.00,-5.39,-2.37,5.89
18.931,-0.10,-2.13,0.18,2.14
18.941,0.14,1.87,1.66,2.51
18.951,0.69,5.08,1.83,5.44
18.961,0.97,6.80,1.53,7.04
18.971,1.04,6.81,0.58,6.91
18.981,0.65,4.99,0.53,5.06
18.990,-0.19,2.79,1.08,2.99
19.001,-0.21,1.35,0.61,1.49
19.011,1.24,1.10,0.35,1.69
19.021,3.02,1.23,1.33,3.52
19.030,3.88,0.49,2.46,4.62
19.041,3.51,0.10,3.47,4.93
19.051,2.69,-0.43,3.77,4.65
19.061,2.03,-0.68,3.36,3.98
19.070,1.71,-0.24,2.63,3.15
19.080,1.37,0.01,1.71,2.19
19.091,1.34,0.45,1.28,1.91
19.101,1.75,0.91,1.57,2.52
19.111,2.34,1.04,2.36,3.48
19.120,2.95,0.72,3.25,4.45
19.131,3.55,0.09,3.65,5.09
19.140,3.99,-0.47,3.29,5.19
19.150,4.07,-0.71,2.45,4.80
19.160,3.82,-1.00,1.49,4.22
19.170,3.35,-1.40,0.91,3.74
19.180,2.75,-1.82,0.75,3.38
19.190,2.40,-2.38,0.46,3.41
19.200,2.16,-3.02,-0.15,3.72
19.210,1.80,-3.30,-1.18,3.94
19.220,1.52,-2.95,-1.80,3.77
19.230,1.29,-2.07,-1.73,2.99
19.240,1.01,-1.15,-1.29,2.00
19.250,0.43,-0.34,-1.13,1.26
19.260,-0.53,-0.84,-1.67,1.94
19.270,-3.09,-2.99,-4.77,6.42
19.280,-6.51,0.10,-7.07,9.61
19.290,-6.46,7.94,-5.10,11.44
19.300,-4.97,9.77,-1.28,11.03
19.310,-3.09,7.18,0.83,7.86
19.320,-0.90,4.95,1.46,5.24
19.330,1.27,3.17,2.29,4.11
19.340,2.08,1.23,0.68,2.51
19.350,0.96,-1.08,-2.65,3.02
19.360,0.39,0.01,-3.13,3.15
19.370,0.17,2.69,-2.41,3.62
19.380,-0.03,4.35,-0.95,4.45
19.390,-0.02,4.69,-0.62,4.73
19.400,0.66,3.77,0.44,3.85
19.410,1.94,2.23,0.32,2.97
19.420,2.60,0.62,0.23,2.68
19.430,2.56,-0.80,0.66,2.76
19.440,2.21,-1.83,0.45,2.91
19.450,1.83,-2.21,-0.21,2.87
19.460,1.31,-2.02,-0.62,2.49
19.470,0.72,-1.76,-0.63,2.00
19.480,0.24,-1.43,-0.72,1.62
19.490,-0.13,-0.88,-0.74,1.16
19.500,-0.34,-0.93,-0.29,1.03
19.510,-0.18,-1.46,-0.02,1.47
19.520,0.05,-1.51,0.94,1.78
19.530,0.08,-1.19,2.07,2.39
19.540,0.27,-0.41,0.84,0.98
19.550,0.14,0.02,0.51,0.53
19.560,0.28,0.53,1.07,1.22
19.570,0.91,0.90,1.59,2.05
19.580,0.92,1.40,1.20,2.06
19.590,-0.01,0.12,-0.17,0.21
19.600,-0.08,-1.70,-0.43,1.76
19.610,0.23,-2.53,0.39,2.57
19.620,0.46,-2.75,0.93,2.94
19.630,0.92,-3.35,0.26,3.48
19.640,1.32,-3.61,0.14,3.85
19.650,1.59,-3.39,-0.25,3.76
19.660,1.72,-2.84,-0.44,3.35
19.670,1.62,-2.20,-0.76,2.84
19.680,1.72,-2.07,-1.09,2.90
19.690,1.53,-1.68,-1.16,2.55
19.700,1.08,-1.10,-0.93,1.79
19.709,0.71,-0.81,-0.86,1.38
19.720,0.41,-1.72,-1.38,2.24
19.729,0.12,-3.66,-1.88,4.12
19.739,0.25,-4.14,-1.60,4.44
19.750,0.88,-3.56,-1.48,3.96
19.760,1.51,-2.89,-1.57,3.62
19.769,1.84,-2.75,-2.00,3.87
19.780,1.90,-2.92,-2.40,4.23
19.789,1.74,-2.94,-2.74,4.38
19.799,1.19,-3.05,-3.43,4.74
19.810,0.65,-2.71,-4.11,4.97
19.819,0.10,-1.90,-4.46,4.85
19.829,-0.51,-1.27,-4.63,4.83
19.839,-0.95,-1.09,-4.33,4.57
19.849,-0.84,-1.21,-3.69,3.97
19.859,-0.29,-0.75,-2.64,2.76
19.869,0.30,0.16,-2.09,2.12
19.879,0.56,1.17,-1.53,2.01
19.889,0.25,1.75,-1.64,2.41
19.899,-0.10,1.23,-1.64,2.05
19.909,-0.24,0.52,-1.89,1.97
19.919,-0.28,-0.08,-1.76,1.78
19.929,-0.44,0.08,-1.09,1.18
19.939,-0.95,1.31,-0.40,1.67
19.949,-1.37,2.96,0.35,3.28
19.959,-1.89,4.26,1.70,4.96
19.969,-2.57,4.97,2.88,6.29
19.979,-3.66,4.99,3.30,7.01
19.989,-4.80,4.17,3.59,7.30
19.999,-4.53,3.72,4.27,7.25
20.009,-3.87,3.55,4.65,7.02
20.019,-3.66,3.90,4.74,7.15
20.029,-2.60,3.00,4.48,5.99
20.039,1.46,-1.14,4.79,5.13
20.049,0.43,-1.22,1.52,1.99
20.059,-1.81,1.66,0.12,2.46
20.069,-1.89,2.12,0.95,2.99
20.079,-0.97,1.23,2.44,2.90
20.089,-0.24,1.18,3.10,3.33
20.099,0.37,0.92,3.46,3.60
20.109,0.51,0.42,3.98,4.04
20.119,0.74,0.05,3.29,3.37
20.129,0.36,-0.27,3.16,3.19
20.139,-0.42,-0.36,1.22,1.34
20.149,-0.11,-0.37,0.14,0.42
20.159,-0.07,-1.09,-0.84,1.38
20.169,-0.61,-1.69,-2.12,2.78
20.179,-0.77,-2.33,-3.05,3.92
20.189,-0.64,-3.03,-3.77,4.88
20.199,-0.12,-3.45,-2.78,4.43
20.209,0.85,-2.88,-1.60,3.40
20.219,1.61,-2.05,-1.27,2.90
20.229,2.52,-2.17,-0.49,3.36
20.239,3.06,-2.19,0.23,3.77
20.249,2.38,-1.10,0.29,2.64
20.259,1.23,-0.75,-0.01,1.44
20.269,-1.25,-0.70,0.06,1.44
20.279,-3.12,-1.56,-0.47,3.52
20.289,-2.84,-4.66,-1.13,5.57
20.299,-3.29,-4.63,-1.30,5.83
20.309,-3.15,-3.54,-2.11,5.19
20.319,-1.98,-3.70,-2.49,4.88
20.329,-0.55,-4.61,-2.01,5.06
20.339,0.29,-5.24,-1.68,5.51
20.349,0.62,-5.15,-1.24,5.33
20.359,0.59,-4.90,-0.69,4.99
20.369,0.30,-5.11,-0.48,5.14
20.379,0.06,-5.47,-0.17,5.47
20.388,-0.13,-5.93,0.74,5.98
20.399,-1.22,-4.43,1.22,4.75
20.409,-3.02,1.01,-0.96,3.32
20.418,-3.76,6.17,-2.68,7.71
20.428,-4.01,10.28,-3.33,11.52
20.438,-4.81,12.98,-2.14,14.01
20.449,-4.09,11.80,0.30,12.49
20.458,-2.22,6.86,6.38,9.63
20.468,-0.18,2.97,8.94,9.42
20.478,2.64,3.80,5.72,7.36
20.488,3.92,7.30,2.33,8.61
20.498,1.86,8.90,0.33,9.10
20.508,0.49,6.75,0.25,6.78
20.518,0.42,4.51,0.39,4.55
20.528,-0.21,3.55,1.96,4.06
20.538,-0.73,3.57,3.84,5.30
20.548,-0.21,3.52,4.52,5.74
20.558,0.67,3.13,4.50,5.52
20.568,1.80,2.60,3.89,5.01
20.578,2.03,1.93,2.31,3.63
20.588,2.01,1.50,1.30,2.82
20.598,2.38,1.77,0.59,3.03
20.608,3.16,2.68,0.68,4.20
20.618,4.02,3.84,0.91,5.63
20.628,2.82,5.58,-0.57,6.28
20.638,2.08,6.40,-1.22,6.84
20.648,0.89,5.78,-1.27,5.98
20.658,-0.22,5.12,-1.70,5.40
20.668,-0.65,4.72,-0.93,4.85
20.678,0.18,3.77,-1.17,3.95
20.688,0.84,3.60,-1.81,4.12
20.698,0.80,4.85,-1.10,5.04
20.708,1.03,5.33,-0.65,5.47
20.718,-0.32,3.22,0.75,3.32
20.728,-0.43,4.85,-1.92,5.24
20.738,-1.10,2.68,-0.72,2.98
20.748,-1.87,0.82,-0.35,2.07
20.758,-2.33,0.44,-0.68,2.47
20.768,-2.24,0.36,-0.72,2.38
20.778,-1.42,-0.11,-0.38,1.48
20.788,0.07,-1.20,-1.00,1.57
20.798,1.60,-1.15,-0.27,1.99
20.808,3.05,-0.71,0.78,3.23
20.818,3.76,0.32,1.33,4.00
20.828,4.05,-0.30,2.56,4.80
20.838,3.06,-1.36,3.95,5.18
20.848,1.07,-0.82,2.90,3.20
20.858,-2.26,-1.00,2.51,3.52
20.868,-5.04,-2.32,0.85,5.61
20.878,-6.27,-3.69,0.14,7.28
20.888,-5.69,-2.92,2.88,7.02
20.898,-4.68,-3.05,4.17,6.97
20.908,-3.45,-3.48,3.40,5.96
20.918,-2.43,-2.07,3.03,4.40
20.928,-1.98,-0.37,-0.18,2.02
20.938,-1.30,-1.55,3.06,3.67
20.948,-1.90,-2.46,1.32,3.38
20.958,-2.56,-2.11,1.23,3.54
20.968,-2.95,-2.54,0.73,3.96
20.978,-3.03,-3.31,1.27,4.67
20.987,-3.31,-2.68,1.54,4.53
20.997,-3.07,-3.11,2.10,4.85
21.007,-3.57,-4.46,2.98,6.45
21.018,-3.52,-4.12,2.89,6.14
21.027,-2.88,-5.29,1.94,6.33
21.037,-3.31,-2.27,2.29,4.62
21.047,-4.01,0.51,-0.47,4.07
21.057,-4.30,0.43,-3.53,5.58
21.068,-4.48,-0.26,-5.41,7.03
21.077,-4.37,-0.64,-6.31,7.71
21.087,-4.41,-1.20,-4.62,6.50
21.097,-4.44,-2.13,-2.78,5.66
21.107,-3.90,-2.65,-2.79,5.48
21.117,-3.62,-2.10,-3.43,5.41
21.127,-3.30,-0.20,-4.19,5.34
21.137,-2.43,0.89,-5.48,6.06
21.147,-1.30,1.09,-5.67,5.91
21.157,-0.13,1.52,-6.43,6.61
21.167,1.18,2.96,-6.90,7.60
21.177,2.68,4.32,-6.12,7.95
21.187,4.30,3.41,-4.26,6.95
21.197,4.98,2.22,-3.52,6.49
21.208,5.03,1.67,-3.52,6.37
21.217,3.79,2.53,-3.52,5.76
21.227,2.40,3.57,-5.17,6.73
21.237,1.68,3.53,-6.20,7.33
21.247,-0.38,3.51,-3.42,4.91
21.257,-0.65,3.62,-0.61,3.73
21.267,-3.73,2.40,2.64,5.17
21.277,-4.63,0.74,-1.78,5.02
21.287,-1.63,0.29,-2.18,2.74
21.297,1.16,1.22,-2.83,3.29
21.307,-0.23,3.20,-3.79,4.97
21.317,-2.64,1.33,-1.72,3.42
21.327,-2.24,-1.06,0.01,2.48
21.337,-0.82,-0.93,-1.73,2.13
21.347,-0.66,0.17,-4.09,4.14
21.357,-1.32,1.20,-5.60,5.88
21.367,-1.23,0.87,-6.19,6.37
21.377,-1.57,-0.01,-3.90,4.21
21.387,-1.46,-0.91,-0.94,1.96
21.397,-1.26,-0.95,0.78,1.76
21.407,-0.93,-0.31,0.60,1.15
21.417,-0.84,0.01,-0.43,0.94
21.427,-1.08,0.68,-1.04,1.65
21.437,-1.35,1.30,-1.73,2.55
21.447,-1.53,0.56,-1.54,2.24
21.457,-1.48,-0.01,-0.92,1.75
21.467,-0.84,0.14,-1.07,1.37
21.477,-0.41,0.34,-0.41,0.67
21.487,-0.18,0.99,0.06,1.01
21.497,0.00,1.66,-0.33,1.70
21.507,-0.27,1.93,-0.62,2.04
21.517,-0.34,1.81,-0.85,2.03
21.527,-0.02,1.77,-0.96,2.02
21.537,0.27,1.88,-0.65,2.01
21.547,0.50,1.82,-0.26,1.91
21.557,1.12,1.47,0.09,1.85
21.567,1.59,2.02,1.06,2.78
21.576,1.53,1.51,0.36,2.18
21.587,1.20,1.29,-0.22,1.78
21.597,1.03,1.14,-0.44,1.60
21.606,0.74,0.67,-0.37,1.07
21.617,0.16,0.10,-0.10,0.21
21.627,-0.50,-0.28,0.07,0.57
21.637,-0.81,-0.71,0.58,1.22
21.646,-0.12,-1.02,1.03,1.46
21.657,0.60,-0.59,1.43,1.66
21.667,0.53,-0.35,1.18,1.35
21.677,0.17,-0.49,1.11,1.22
21.686,0.66,-0.35,0.51,0.90
21.696,1.29,-0.24,0.19,1.32
21.706,1.40,-0.31,0.04,1.43
21.716,1.40,-0.14,-0.23,1.42
21.726,1.09,-0.27,0.06,1.13
21.736,0.67,-0.47,0.45,0.93
21.746,0.46,-0.56,0.67,0.99
21.756,0.37,-0.39,0.67,0.86
21.766,0.22,-0.56,0.60,0.85
21.776,-0.03,-0.76,0.56,0.95
21.786,-0.16,-0.89,0.35,0.97
21.796,0.38,-0.46,-0.01,0.60
21.806,0.52,-0.00,-0.29,0.59
