time,ax,ay,az,atotal
0.000,-1.40,0.35,-2.07,2.53
0.010,-1.40,-0.00,-2.54,2.90
0.020,-1.28,-0.05,-2.20,2.54
0.030,-1.30,0.22,-1.90,2.31
0.040,-1.41,0.85,-1.31,2.10
0.050,-1.66,1.47,-1.61,2.74
0.060,-1.57,1.41,-1.61,2.65
0.070,-1.15,1.03,-1.89,2.44
0.080,-1.20,1.53,-2.24,2.97
0.090,-1.51,1.96,-2.21,3.32
0.100,-1.73,2.18,-1.94,3.40
0.110,-1.28,2.54,-2.74,3.95
0.120,-1.76,2.57,-3.14,4.43
0.130,-2.41,2.37,-3.20,4.65
0.140,-2.45,2.13,-3.70,4.92
0.150,-2.55,1.48,-3.40,4.50
0.160,-2.47,0.53,-3.12,4.01
0.170,-2.35,-0.17,-2.79,3.65
0.180,-2.41,-0.28,-2.52,3.49
0.190,-1.74,-0.15,-1.98,2.64
0.200,-1.23,-0.07,-1.64,2.05
0.210,-1.18,1.04,-2.04,2.57
0.220,-1.91,2.47,-2.66,4.10
0.230,-2.43,1.89,-3.89,4.96
0.240,-2.88,1.83,-4.81,5.90
0.250,-3.26,1.75,-5.04,6.25
0.260,-3.40,1.11,-5.23,6.34
0.270,-3.65,0.16,-4.86,6.08
0.280,-3.57,-0.43,-5.64,6.69
0.290,-3.68,-1.49,-5.28,6.61
0.300,-3.14,-2.01,-4.70,6.00
0.310,-3.16,-1.94,-5.78,6.87
0.320,-4.25,-1.25,-6.63,7.97
0.330,-5.02,0.33,-7.11,8.71
0.340,-6.01,1.05,-6.77,9.11
0.351,-6.12,0.79,-7.09,9.40
0.359,-5.82,-0.63,-6.47,8.73
0.369,-5.62,-2.25,-5.81,8.38
0.379,-4.88,-2.72,-5.99,8.19
0.389,-5.02,-1.84,-5.78,7.88
0.399,-6.46,-0.20,-4.90,8.11
0.410,-7.79,0.49,-5.11,9.33
0.419,-8.88,-0.51,-6.23,10.86
0.429,-9.34,-1.55,-7.05,11.80
0.439,-9.51,-1.20,-7.08,11.92
0.450,-10.06,-0.22,-6.01,11.72
0.459,-10.43,0.86,-4.89,11.55
0.469,-9.81,0.74,-4.23,10.71
0.479,-9.32,-0.78,-4.35,10.32
0.493,-9.45,-2.16,-3.89,10.44
0.499,-10.06,-1.73,-3.14,10.68
0.509,-10.94,-0.78,-2.30,11.21
0.519,-11.58,-1.08,-2.63,11.92
0.529,-12.10,-0.88,-3.01,12.50
0.539,-13.10,0.73,-3.47,13.57
0.549,-13.67,2.54,-3.94,14.45
0.560,-13.47,3.08,-3.87,14.35
0.569,-12.71,2.51,-3.11,13.32
0.579,-11.52,1.59,-2.55,11.91
0.589,-10.20,1.03,-3.27,10.76
0.599,-9.75,0.95,-2.49,10.11
0.609,-10.02,0.76,-2.15,10.27
0.619,-13.71,-2.21,-4.38,14.56
0.629,-20.32,-5.43,-2.61,21.20
0.640,-20.47,-4.00,3.89,21.22
0.649,-11.43,0.71,5.12,12.54
0.659,-7.89,1.28,4.09,8.98
0.669,-8.57,-0.89,6.64,10.88
0.679,-8.30,-2.72,10.57,13.71
0.689,-6.28,-3.76,11.03,13.24
0.699,-4.09,-3.08,6.63,8.38
0.709,-2.88,-1.42,4.34,5.40
0.719,-3.07,0.46,5.28,6.12
0.729,-2.68,2.37,4.99,6.14
0.739,-1.54,4.10,3.68,5.72
0.749,-1.21,3.94,1.41,4.36
0.759,-0.78,0.52,4.88,4.97
0.769,-0.86,-0.18,3.19,3.31
0.779,-3.14,0.41,0.87,3.29
0.789,-3.22,-0.63,0.65,3.35
0.799,-2.50,-1.65,-0.15,3.00
0.809,-3.46,-2.64,-1.39,4.57
0.819,-2.70,-4.25,-1.30,5.20
0.829,-1.35,-0.63,-2.64,3.03
0.839,-0.80,-3.84,-0.03,3.92
0.849,-0.37,-6.57,1.04,6.66
0.858,-0.32,-3.97,0.69,4.04
0.869,0.04,-3.92,0.62,3.97
0.879,0.22,-7.43,1.31,7.55
0.889,-0.16,-8.88,1.25,8.97
0.899,-0.72,-8.82,1.43,8.97
0.909,-1.16,-8.29,1.86,8.57
0.918,-0.98,-8.10,1.75,8.35
0.928,-0.43,-4.86,1.85,5.22
0.939,0.31,-4.36,2.32,4.95
0.948,1.12,-4.50,2.69,5.37
0.959,1.70,-4.62,2.91,5.72
0.968,1.82,-5.43,3.18,6.55
0.978,1.76,-6.17,2.77,6.99
0.988,1.61,-6.91,2.27,7.45
0.999,0.86,-7.32,1.65,7.55
1.008,-0.31,-6.19,0.23,6.20
1.018,-1.00,-4.27,-1.53,4.65
1.028,-1.31,-0.83,-2.15,2.65
1.038,-1.92,1.97,-1.52,3.14
1.048,-1.81,3.17,-0.56,3.69
1.058,-0.95,3.48,-0.32,3.62
1.068,-1.49,3.09,0.54,3.47
1.078,-2.13,2.63,-0.47,3.42
1.088,-2.76,2.88,1.03,4.12
1.098,-3.37,2.99,1.80,4.85
1.108,-4.37,2.83,1.50,5.42
1.118,-4.17,4.14,0.09,5.87
1.128,-3.59,3.32,-0.94,4.98
1.138,-3.03,4.20,-1.76,5.47
1.149,-1.60,7.24,-0.93,7.47
1.158,0.53,5.94,0.58,5.99
1.168,2.05,3.29,0.86,3.97
1.178,2.17,1.78,1.21,3.06
1.188,1.29,0.79,1.52,2.15
1.198,0.37,0.94,0.40,1.09
1.208,1.26,0.77,-1.03,1.80
1.218,1.67,-1.84,-0.30,2.51
1.228,0.30,-2.18,1.02,2.43
1.238,0.39,-0.84,-0.57,1.09
1.248,0.37,-0.05,-0.65,0.75
1.258,-0.05,0.68,-0.17,0.70
1.268,-0.91,1.62,-0.75,2.01
1.278,-1.80,2.73,-1.71,3.69
1.288,-1.25,2.52,-0.43,2.85
1.298,-0.71,1.20,1.30,1.91
1.308,-0.15,-0.01,1.61,1.62
1.318,0.55,-0.93,0.77,1.33
1.328,0.54,-1.18,1.17,1.75
1.338,-0.02,-1.07,0.50,1.18
1.348,-0.96,-1.05,0.11,1.43
1.358,-1.84,-1.34,0.04,2.28
1.368,-2.32,-1.71,-0.81,2.99
1.378,-1.84,-1.93,-0.63,2.74
1.388,-0.19,-3.15,-0.01,3.15
1.398,0.31,-3.90,0.07,3.91
1.408,0.43,-4.25,0.86,4.36
1.418,0.24,-4.65,0.88,4.74
1.428,-0.22,-4.37,0.26,4.38
1.438,-0.28,-3.57,-0.17,3.59
1.448,0.23,-2.58,0.23,2.60
1.458,1.46,-0.93,-1.75,2.46
1.468,-0.47,1.47,-7.90,8.05
1.478,-2.80,1.52,-7.13,7.81
1.488,-2.58,-0.85,-2.88,3.96
1.498,-1.77,-2.65,-0.45,3.22
1.508,-1.41,-2.87,0.51,3.23
1.518,-1.58,-2.45,2.13,3.61
1.528,-1.89,-1.46,3.52,4.25
1.537,-2.45,0.61,3.89,4.64
1.548,-2.86,2.83,2.67,4.83
1.557,-2.72,3.02,1.32,4.28
1.568,-2.03,3.63,0.37,4.17
1.577,-1.60,3.66,-0.37,4.01
1.587,-1.03,3.45,-0.72,3.68
1.597,-0.55,3.06,-1.28,3.37
1.607,-0.25,2.18,-1.88,2.90
1.617,-0.17,2.16,-2.58,3.37
1.627,-0.17,2.16,-3.05,3.74
1.637,0.03,2.30,-3.08,3.85
1.647,-0.00,1.81,-2.25,2.89
1.657,0.38,0.76,-0.86,1.21
1.668,0.94,-0.06,1.12,1.46
1.677,1.09,-0.20,1.85,2.16
1.687,0.77,0.23,1.99,2.14
1.697,0.43,1.27,1.37,1.92
1.707,-0.07,2.89,0.71,2.97
1.717,-0.72,4.40,-0.04,4.46
1.727,-1.08,5.19,-0.51,5.33
1.737,-1.01,4.09,0.36,4.23
1.747,-1.01,1.46,1.53,2.35
1.757,-0.92,-0.38,1.58,1.87
1.767,-0.06,-1.00,0.94,1.38
1.777,0.95,-0.94,0.75,1.53
1.787,1.65,-0.50,0.97,1.98
1.797,1.60,0.56,1.25,2.10
1.807,1.16,1.25,1.08,2.02
1.817,0.74,1.44,0.80,1.81
1.827,0.53,1.17,0.40,1.34
1.837,0.72,0.68,-0.03,0.99
1.847,0.83,0.38,-0.12,0.93
1.857,0.65,-0.20,-0.20,0.71
1.867,0.47,-1.02,-0.07,1.12
1.877,0.46,-1.43,0.10,1.51
1.887,0.59,-1.42,-0.04,1.54
1.897,0.78,-1.26,0.13,1.48
1.907,1.22,-1.55,0.62,2.07
1.917,1.69,-1.98,0.99,2.78
1.927,1.28,-2.01,0.97,2.57
1.937,0.20,-1.75,-0.04,1.76
1.947,-1.20,-0.95,-1.28,2.00
1.957,-1.82,-0.24,-1.32,2.26
1.967,-1.26,-0.25,0.09,1.28
1.977,-0.84,-0.73,0.88,1.42
1.987,-0.84,-1.06,0.38,1.40
1.997,-0.57,-1.35,-0.29,1.50
2.007,-0.49,-1.31,-0.60,1.52
2.017,-0.20,-1.62,-0.91,1.87
2.027,-0.90,-1.31,-1.55,2.22
2.037,-2.07,-0.12,-1.89,2.81
2.047,-2.61,0.62,-2.74,3.83
2.057,-3.08,2.33,-4.77,6.13
2.067,-2.14,3.56,-6.83,8.00
2.077,-1.47,3.55,-5.70,6.87
2.087,-1.26,4.07,-2.42,4.91
2.097,-0.59,5.06,-0.02,5.09
2.107,-0.07,5.77,0.88,5.84
2.117,-0.39,6.35,0.84,6.42
2.126,-1.19,6.20,0.32,6.32
2.136,-1.33,4.96,-0.15,5.13
2.147,-0.92,3.24,0.79,3.46
2.157,-0.28,2.13,1.30,2.51
2.166,0.32,1.74,1.46,2.29
2.176,1.03,1.36,1.58,2.32
2.187,2.04,0.39,0.91,2.27
2.197,2.86,-1.01,-0.27,3.05
2.207,3.53,-1.83,-2.27,4.58
2.217,3.60,-2.38,-2.62,5.05
2.227,3.60,-3.33,-1.48,5.12
2.236,3.83,-5.39,-0.92,6.68
2.246,3.00,-6.92,0.49,7.56
2.257,2.00,-5.84,1.20,6.29
2.266,1.41,-4.57,0.82,4.86
2.276,1.78,-4.03,1.45,4.64
2.286,2.56,-0.56,0.28,2.63
2.296,1.64,2.34,-0.41,2.89
2.306,0.23,3.96,-0.49,4.00
2.316,-0.83,4.18,-0.65,4.31
2.326,-1.82,3.02,-0.66,3.59
2.336,-2.72,1.62,0.07,3.17
2.346,-3.47,0.29,1.42,3.76
2.356,-3.52,-0.96,1.71,4.03
2.366,-3.20,-1.86,0.91,3.81
2.376,-2.90,-2.40,0.19,3.77
2.386,-2.53,-2.75,0.17,3.74
2.396,-1.95,-2.76,0.15,3.38
2.406,-0.90,-2.57,-0.12,2.73
2.416,0.30,-2.10,-0.30,2.14
2.426,1.47,-1.48,-0.50,2.15
2.436,2.31,-0.90,-0.61,2.55
2.446,2.43,-0.81,-0.86,2.70
2.456,1.97,-0.89,-0.98,2.38
2.466,1.01,-0.97,-0.77,1.59
2.476,-0.17,-1.32,-0.84,1.57
2.486,-1.11,-2.01,-1.49,2.74
2.496,-1.90,-2.41,-2.10,3.72
2.506,-2.72,-2.17,-1.76,3.90
2.516,-2.94,-1.90,-1.16,3.69
2.526,-2.38,-1.87,-1.04,3.20
2.536,-1.76,-1.71,-1.39,2.82
2.546,-1.63,-1.34,-1.64,2.67
2.556,-1.70,-0.76,-1.81,2.60
2.566,-1.75,-0.07,-1.98,2.64
2.576,-1.71,0.64,-2.19,2.85
2.586,-1.64,1.31,-2.44,3.22
2.596,-1.51,1.91,-2.33,3.37
2.606,-1.27,2.22,-1.74,3.09
2.616,-1.03,2.18,-1.10,2.65
2.626,-0.71,2.86,-0.90,3.08
2.636,-0.42,4.05,-1.29,4.28
2.646,-0.60,5.15,-1.71,5.46
2.656,-1.91,6.02,-1.19,6.43
2.666,-4.14,6.16,0.36,7.43
2.676,-5.61,5.29,0.89,7.76
2.686,-5.55,4.65,-0.17,7.24
2.696,-4.31,3.91,-1.69,6.06
2.706,-2.78,2.66,-2.48,4.58
2.716,-1.28,1.10,-3.29,3.70
2.726,0.05,-0.26,-4.18,4.19
2.736,0.45,-1.65,-4.16,4.49
2.746,-0.54,-3.51,-2.53,4.36
2.756,-1.59,-4.07,-1.22,4.54
2.765,-2.34,-4.35,-0.27,4.95
2.776,-2.95,-5.52,-0.10,6.26
2.786,-3.44,-6.52,-0.32,7.38
2.796,-3.76,-5.60,-1.17,6.85
2.806,-3.18,-2.79,-1.49,4.48
2.816,-1.41,0.97,-0.89,1.93
2.826,0.40,4.48,-0.76,4.56
2.835,1.69,6.75,-0.81,7.00
2.846,2.36,7.60,-0.20,7.96
2.856,2.40,7.04,1.02,7.51
2.866,1.95,5.10,2.34,5.94
2.875,1.71,2.49,1.88,3.56
2.885,2.33,0.80,0.80,2.59
2.895,3.35,0.11,0.82,3.45
2.906,4.07,-0.67,1.71,4.47
2.915,4.04,-1.57,2.64,5.08
2.925,3.27,-2.04,3.08,4.94
2.935,2.32,-2.38,2.97,4.46
2.945,1.38,-2.53,2.84,4.05
2.955,0.72,-2.31,2.38,3.40
2.965,0.11,-1.74,2.13,2.75
2.975,-0.26,-1.23,2.30,2.62
2.985,0.15,-0.63,2.42,2.50
2.995,1.31,-0.06,2.50,2.83
3.005,2.32,-0.14,2.75,3.61
3.015,2.92,-0.97,2.54,3.99
3.025,3.50,-2.28,1.61,4.48
3.035,3.84,-3.20,1.00,5.09
3.045,3.76,-3.54,-0.13,5.16
3.055,3.36,-3.46,-1.56,5.07
3.066,1.91,-2.88,-2.66,4.36
3.075,1.02,-2.47,-3.07,4.07
3.085,1.40,-2.40,-2.73,3.89
3.095,1.13,-1.99,-2.32,3.26
3.105,0.74,-1.49,-1.76,2.43
3.115,0.41,-0.70,-0.94,1.24
3.125,0.33,0.12,-0.64,0.73
3.135,0.59,0.84,-1.02,1.45
3.145,0.66,1.60,-2.28,2.87
3.155,0.53,3.25,-4.78,5.80
3.165,0.75,4.63,-6.82,8.28
3.175,0.40,5.25,-5.12,7.35
3.185,0.12,5.71,-1.69,5.96
3.195,0.13,6.21,0.43,6.23
3.205,-0.13,6.69,0.71,6.73
3.215,-0.64,6.51,0.83,6.59
3.225,-1.47,5.67,1.35,6.01
3.235,-2.42,4.67,1.64,5.51
3.245,-2.44,3.18,0.96,4.12
3.255,-1.39,1.49,-0.09,2.03
3.265,0.08,-0.04,-0.69,0.69
3.275,1.49,-1.39,-0.74,2.17
3.285,2.87,-2.93,-0.44,4.12
3.295,3.78,-4.62,0.15,5.98
3.305,3.54,-5.58,-0.57,6.64
3.315,2.63,-5.40,-0.89,6.07
3.325,2.01,-3.29,-1.50,4.14
3.335,1.07,-0.73,-0.78,1.51
3.345,0.25,2.63,0.07,2.64
3.355,-0.37,4.52,0.95,4.63
3.365,-0.64,5.13,1.88,5.50
3.375,-0.40,4.07,1.93,4.53
3.385,0.06,1.58,1.13,1.94
3.395,0.26,-0.94,0.54,1.11
3.405,0.17,-2.35,0.61,2.43
3.414,-0.12,-2.83,0.60,2.90
3.425,-0.46,-2.73,0.70,2.85
3.434,-0.67,-2.25,1.28,2.68
3.445,-0.64,-1.97,1.40,2.50
3.454,-0.17,-1.83,0.98,2.09
3.464,0.60,-2.21,-0.31,2.31
3.474,1.22,-2.82,-1.10,3.26
3.484,0.89,-3.03,-0.77,3.25
3.494,0.05,-3.19,-0.05,3.19
3.504,-0.62,-3.43,-0.16,3.48
3.514,-1.44,-3.31,-0.69,3.68
3.524,-2.46,-2.87,-1.07,3.93
3.534,-3.27,-2.38,-1.81,4.43
3.544,-4.05,-1.96,-2.03,4.93
3.554,-4.69,-1.69,-1.46,5.19
3.564,-4.57,-1.68,-0.95,4.97
3.574,-3.61,-1.59,-1.07,4.08
3.584,-2.71,-0.87,-1.78,3.36
3.594,-2.25,0.29,-2.36,3.27
3.604,-1.91,1.45,-2.47,3.44
3.614,-1.46,2.26,-2.39,3.60
3.624,-1.06,2.48,-2.44,3.63
3.634,-0.92,2.36,-2.45,3.52
3.644,-1.22,2.48,-2.01,3.42
3.654,-2.12,3.15,-1.36,4.04
3.664,-3.52,4.22,-0.75,5.55
3.674,-4.86,5.04,0.11,7.00
3.684,-5.28,5.10,0.38,7.35
3.694,-4.30,4.41,-0.03,6.16
3.704,-2.68,3.53,-1.32,4.62
3.714,-1.19,2.26,-2.46,3.54
3.724,0.14,0.94,-2.87,3.02
3.734,1.11,0.06,-3.06,3.26
3.744,1.08,-0.41,-3.04,3.25
3.754,0.18,-0.89,-2.36,2.53
3.764,-1.00,-1.12,-1.43,2.07
3.774,-1.86,-1.36,-0.40,2.34
3.784,-2.36,-2.22,0.11,3.24
3.794,-2.86,-3.97,0.02,4.89
3.804,-3.42,-4.63,-0.69,5.80
3.814,-3.24,-3.16,-2.36,5.11
3.824,-2.38,0.19,-0.92,2.56
3.834,-1.15,3.57,0.33,3.76
3.844,-0.19,5.75,1.04,5.85
3.854,0.54,6.77,1.95,7.06
3.864,0.63,6.44,2.88,7.09
3.874,0.35,5.06,3.60,6.22
3.884,0.76,3.36,2.62,4.33
3.894,1.94,1.74,1.29,2.91
3.904,3.11,0.16,1.57,3.49
3.914,3.70,-1.32,2.77,4.80
3.924,3.49,-2.09,3.39,5.30
3.934,3.09,-1.96,3.75,5.24
3.944,2.60,-1.72,3.88,4.97
3.954,2.21,-1.29,3.42,4.27
3.964,1.85,-0.91,3.17,3.78
3.973,1.58,-0.87,2.97,3.47
3.984,1.50,-0.84,2.75,3.24
3.993,1.57,-1.24,2.10,2.90
4.003,1.82,-1.85,1.72,3.11
4.014,2.72,-2.41,1.78,4.04
4.023,5.55,-3.60,2.04,6.92
4.033,7.99,-5.32,2.47,9.91
4.044,4.98,-5.10,1.70,7.33
4.053,1.66,-3.52,-0.18,3.90
4.063,0.23,-2.03,-1.31,2.43
4.073,-0.57,-1.72,-2.20,2.85
4.084,-0.63,-1.90,-2.77,3.42
4.093,-0.85,-1.43,-2.24,2.79
4.103,-1.47,-0.66,-1.48,2.18
4.113,-2.27,0.20,-1.32,2.63
4.123,-3.21,1.07,-2.00,3.93
4.133,-4.33,2.62,-2.61,5.70
4.143,-4.32,5.10,-2.33,7.08
4.153,-2.29,5.20,-2.72,6.30
4.163,-0.72,4.22,-4.19,5.99
4.174,0.04,4.09,-3.98,5.71
4.183,0.77,4.58,-0.01,4.64
4.193,1.05,5.70,3.58,6.81
4.203,0.57,5.26,2.56,5.88
4.213,0.09,4.81,0.76,4.87
4.223,0.43,5.03,0.31,5.05
4.233,1.02,5.07,0.19,5.17
4.243,1.51,4.25,0.16,4.51
4.253,1.66,2.91,0.08,3.35
4.263,1.45,1.48,-0.39,2.11
4.273,1.24,0.24,-1.54,1.99
4.283,1.19,-1.05,-1.80,2.40
4.293,0.83,-2.22,-0.80,2.50
4.303,0.93,-2.96,-2.21,3.81
4.313,2.59,-4.48,-0.78,5.24
4.323,3.19,-4.37,0.10,5.41
4.333,1.64,-1.58,0.25,2.29
4.343,0.69,0.51,0.73,1.13
4.353,0.11,2.63,1.37,2.97
4.363,-0.46,3.11,0.32,3.16
4.373,-0.94,2.29,0.52,2.53
4.383,-1.41,0.95,1.34,2.16
4.393,-1.96,-0.70,1.14,2.37
4.403,-2.50,-2.00,1.12,3.39
4.413,-2.47,-2.69,1.01,3.79
4.423,-1.66,-2.86,0.22,3.31
4.433,-0.18,-2.68,0.07,2.69
4.443,0.73,-1.93,0.81,2.22
4.453,1.25,-1.44,0.80,2.07
4.463,1.68,-1.54,-0.65,2.37
4.473,1.61,-1.59,-2.42,3.31
4.483,1.15,-1.71,-3.37,3.95
4.493,0.38,-2.20,-1.46,2.66
4.503,-0.78,-2.51,0.41,2.66
4.513,-1.04,-3.38,-0.52,3.57
4.523,-1.00,-3.88,-1.16,4.17
4.533,-1.54,-3.86,-0.98,4.27
4.543,-2.62,-3.42,-0.76,4.37
4.553,-3.51,-2.94,-0.90,4.67
4.563,-3.88,-2.58,-1.20,4.81
4.573,-3.74,-2.12,-1.46,4.54
4.583,-3.18,-1.32,-1.80,3.88
4.593,-2.42,-0.11,-2.05,3.17
4.603,-1.59,1.14,-1.99,2.79
4.613,-0.78,2.03,-1.66,2.73
4.623,-0.04,2.46,-1.21,2.74
4.633,0.59,2.66,-0.98,2.90
4.643,0.93,2.98,-0.84,3.23
4.652,0.66,3.72,-0.83,3.87
4.663,-0.59,4.71,-0.46,4.77
4.672,-2.34,4.92,0.16,5.45
4.683,-4.03,4.58,1.60,6.31
4.692,-4.25,3.61,0.63,5.61
4.702,-2.94,2.17,-1.52,3.96
4.713,-1.15,0.73,-3.21,3.48
4.722,0.12,0.50,-4.37,4.40
4.732,0.40,0.58,-3.35,3.42
4.743,-0.05,0.70,-2.57,2.66
4.752,-0.78,0.24,-1.65,1.84
4.763,-1.38,-0.70,-0.53,1.64
4.773,-1.75,-1.95,0.12,2.62
4.782,-2.24,-3.96,0.43,4.57
4.792,-3.17,-5.70,0.17,6.53
4.802,-3.77,-4.83,-1.77,6.37
4.812,-3.42,-1.22,-0.91,3.75
4.822,-1.97,2.11,-0.18,2.89
4.832,-0.88,5.31,0.26,5.39
4.842,0.01,6.97,1.03,7.05
4.852,0.67,6.83,1.56,7.04
4.862,0.64,5.35,2.37,5.88
4.872,0.61,3.56,2.57,4.44
4.882,1.34,2.21,1.88,3.20
4.892,2.47,1.28,1.57,3.20
4.902,3.40,-0.32,1.88,3.90
4.912,3.56,-1.63,2.13,4.46
4.922,3.06,-1.63,2.91,4.52
4.932,2.44,-1.62,3.20,4.34
4.942,2.02,-1.29,3.06,3.89
4.952,1.68,-1.34,2.89,3.60
4.962,1.35,-1.33,2.76,3.35
4.972,1.23,-1.13,2.75,3.21
4.982,1.22,-1.15,2.77,3.24
4.992,1.35,-1.48,2.80,3.44
5.002,1.66,-1.83,3.00,3.89
5.012,1.97,-2.12,3.04,4.20
5.022,1.98,-2.34,2.59,4.01
5.032,1.47,-2.56,1.85,3.49
5.042,0.79,-2.54,0.58,2.72
5.052,0.46,-2.43,-0.47,2.51
5.062,0.44,-3.19,-1.01,3.37
5.072,0.67,-3.92,-1.82,4.37
5.082,0.80,-3.65,-2.57,4.53
5.092,0.85,-2.71,-2.83,4.01
5.102,0.69,-1.39,-2.94,3.33
5.112,-0.01,0.35,-2.83,2.85
5.122,-0.82,2.22,-2.33,3.32
5.132,-1.57,4.44,-2.30,5.24
5.142,-2.49,6.30,-1.69,6.98
5.152,-3.22,6.59,-0.77,7.37
5.162,-2.64,5.46,-3.72,7.12
5.172,-0.94,3.66,-6.70,7.69
5.182,1.11,3.30,-5.56,6.56
5.192,2.70,4.02,-1.26,5.00
5.202,2.65,4.81,3.32,6.41
5.212,0.88,5.20,4.17,6.72
5.222,-0.56,3.93,2.84,4.88
5.232,-0.26,1.99,1.02,2.25
5.242,0.99,0.28,-0.33,1.08
5.251,2.56,-0.88,-0.87,2.84
5.262,4.06,-1.32,-0.97,4.38
5.272,4.90,-1.19,-1.21,5.19
5.282,4.80,-0.89,-1.15,5.01
5.292,3.95,-1.05,-0.57,4.13
5.301,3.00,-1.40,-0.64,3.37
5.312,2.11,-1.40,-1.03,2.73
5.321,0.95,-1.03,-0.04,1.40
5.331,-0.21,0.23,-1.15,1.20
5.342,-1.37,1.48,-0.37,2.05
5.351,-2.45,2.89,0.91,3.90
5.362,-2.78,3.50,1.23,4.63
5.371,-2.37,2.91,1.44,4.02
5.381,-1.82,1.15,1.69,2.74
5.391,-1.27,-1.10,1.65,2.35
5.401,-0.83,-3.06,0.95,3.30
5.411,-0.66,-3.86,0.56,3.95
5.421,-0.59,-3.92,0.19,3.97
5.431,-0.44,-3.63,-0.44,3.68
5.441,-0.23,-3.09,-0.41,3.12
5.451,-0.13,-2.74,0.37,2.77
5.461,-0.04,-2.73,0.44,2.77
5.471,0.13,-2.94,-0.36,2.96
5.481,-0.05,-2.99,-0.83,3.11
5.491,-0.55,-2.71,-1.14,2.99
5.501,-1.11,-2.30,-1.19,2.81
5.511,-1.82,-2.16,-0.79,2.94
5.521,-2.60,-2.48,-0.24,3.60
5.531,-3.02,-2.92,-0.28,4.21
5.541,-3.12,-3.11,-1.02,4.52
5.551,-3.37,-2.87,-1.30,4.61
5.561,-3.50,-2.53,-1.45,4.56
5.571,-3.08,-2.14,-2.02,4.26
5.581,-2.40,-1.28,-2.79,3.89
5.591,-1.89,-0.01,-3.11,3.64
5.601,-1.43,1.30,-2.79,3.40
5.611,-0.84,2.34,-2.36,3.43
5.621,-0.18,2.91,-2.13,3.61
5.631,0.33,3.10,-1.89,3.65
5.641,0.39,3.05,-1.34,3.35
5.651,-0.53,3.42,-0.56,3.50
5.661,-2.56,3.95,-0.54,4.74
5.671,-4.70,4.09,-1.06,6.32
5.681,-6.23,3.66,-0.68,7.26
5.691,-6.25,2.40,-1.04,6.78
5.701,-4.74,0.69,-2.59,5.45
5.711,-2.62,-0.35,-3.76,4.60
5.721,-0.84,-0.01,-3.96,4.05
5.731,0.08,1.57,-2.36,2.84
5.741,0.15,2.54,-1.41,2.91
5.751,-0.42,2.02,-0.88,2.24
5.761,-1.18,0.96,-0.24,1.54
5.771,-1.75,0.61,-0.10,1.86
5.781,-2.17,0.10,-1.13,2.45
5.791,-2.71,-1.39,-2.85,4.18
5.801,-2.33,-1.19,-2.16,3.39
5.811,-0.70,1.40,-0.73,1.73
5.821,0.54,3.94,1.05,4.11
5.831,1.30,4.68,2.01,5.26
5.841,1.58,4.31,2.05,5.02
5.851,1.29,3.27,2.60,4.37
5.861,1.05,2.26,2.84,3.78
5.871,1.61,1.69,2.47,3.40
5.881,3.08,1.21,1.87,3.80
5.891,4.16,-0.40,2.08,4.66
5.901,3.95,-1.59,2.75,5.07
5.910,3.25,-1.94,3.60,5.23
5.921,2.65,-2.03,3.87,5.12
5.930,2.20,-1.90,3.78,4.77
5.940,1.79,-1.91,3.51,4.38
5.951,1.48,-1.77,3.46,4.16
5.960,1.46,-1.29,3.44,3.96
5.970,1.68,-0.99,3.15,3.71
5.981,1.99,-1.27,2.90,3.74
5.990,2.17,-1.93,3.06,4.22
6.000,2.33,-2.12,3.31,4.57
6.010,2.34,-1.91,2.16,3.71
6.020,1.87,-1.69,0.65,2.61
6.030,1.19,-1.70,0.40,2.11
6.040,0.38,-1.60,0.20,1.66
6.050,-0.47,-1.59,-0.52,1.74
6.060,-1.03,-1.37,-1.46,2.25
6.070,-0.94,-0.80,-2.29,2.60
6.080,-0.33,-0.38,-2.32,2.37
6.090,-0.15,-0.03,-2.63,2.64
6.100,-0.99,1.94,-4.82,5.29
6.110,-0.95,5.19,-5.58,7.68
6.120,0.88,6.73,-3.19,7.50
6.130,1.48,5.88,-2.96,6.75
6.140,0.71,3.87,-3.43,5.22
6.150,0.25,3.98,-0.67,4.04
6.160,0.15,4.75,-0.03,4.75
6.170,-0.07,3.95,-1.23,4.13
6.180,0.27,2.24,-1.39,2.65
6.190,1.13,0.94,-0.84,1.69
6.200,1.79,0.39,-0.12,1.83
6.210,2.36,0.25,-0.02,2.37
6.220,3.00,0.34,-0.56,3.07
6.230,3.55,0.44,-0.93,3.69
6.240,3.86,0.33,-0.73,3.94
6.250,3.73,-0.01,-0.49,3.76
6.260,3.04,-0.53,-0.71,3.17
6.270,1.99,-1.12,-0.61,2.37
6.280,1.04,-1.21,-1.21,2.00
6.290,-0.07,-0.91,-1.13,1.45
6.300,-1.08,-0.81,0.43,1.42
6.310,-1.71,-0.44,0.19,1.78
6.320,-1.96,0.94,-0.02,2.18
6.330,-2.06,1.85,0.78,2.88
6.340,-1.64,1.88,0.69,2.59
6.350,-1.05,1.31,0.94,1.93
6.360,-0.61,0.30,1.32,1.49
6.370,-0.21,-1.37,1.50,2.04
6.380,-0.02,-2.63,1.35,2.95
6.390,-0.02,-3.16,0.94,3.30
6.400,-0.25,-3.57,0.84,3.67
6.410,-0.44,-3.76,0.61,3.84
6.420,-0.38,-3.61,0.78,3.71
6.430,-0.14,-3.20,0.86,3.31
6.440,0.17,-2.87,0.44,2.90
6.450,0.50,-2.62,-0.10,2.67
6.460,0.62,-2.59,-0.73,2.76
6.470,0.46,-2.55,-1.21,2.86
6.480,-0.16,-2.26,-1.15,2.54
6.490,-1.02,-2.18,-0.72,2.51
6.500,-1.84,-2.24,-1.03,3.08
6.509,-2.70,-2.37,-1.87,4.05
6.520,-3.79,-2.25,-1.95,4.82
6.530,-4.62,-2.12,-1.15,5.21
6.540,-4.42,-2.33,-0.65,5.04
6.549,-3.30,-2.58,-0.85,4.28
6.560,-1.92,-2.44,-1.39,3.40
6.569,-0.87,-1.80,-1.94,2.78
6.580,-0.29,-0.85,-2.56,2.71
6.589,0.01,0.12,-3.14,3.14
6.599,0.23,0.94,-3.39,3.52
6.609,0.54,1.80,-3.41,3.90
6.619,0.68,2.49,-2.96,3.93
6.629,0.29,3.30,-1.84,3.78
6.639,-0.47,4.56,-0.55,4.62
6.649,-1.10,5.69,-0.08,5.79
6.659,-1.49,6.21,-0.01,6.38
6.669,-1.76,5.74,0.37,6.01
6.679,-2.26,4.17,0.03,4.75
6.689,-2.81,2.46,-1.56,4.04
6.699,-3.12,1.39,-2.84,4.44
6.709,-3.25,0.61,-2.89,4.39
6.719,-3.10,-0.18,-2.61,4.06
6.729,-2.39,-0.52,-2.60,3.57
6.739,-1.49,0.88,-2.93,3.40
6.749,-1.17,2.37,-1.96,3.29
6.759,-1.56,2.25,-0.85,2.86
6.769,-1.90,0.62,0.65,2.10
6.779,-1.73,-0.43,1.22,2.16
6.789,-1.65,-1.58,-0.40,2.32
6.799,-2.23,-3.09,-1.19,3.99
6.809,-2.35,-2.94,-1.21,3.96
6.819,-1.91,-0.47,-0.25,1.98
6.829,-1.09,2.26,1.47,2.91
6.839,-0.26,4.00,1.66,4.34
6.849,0.57,4.84,1.28,5.04
6.859,0.88,4.26,2.05,4.81
6.869,1.37,3.03,2.57,4.20
6.879,3.01,2.02,1.92,4.10
6.889,5.22,0.84,1.61,5.53
6.899,6.63,-0.56,2.45,7.09
6.909,6.90,-1.97,3.53,8.00
6.919,6.19,-2.76,4.50,8.13
6.929,5.12,-2.65,4.60,7.37
6.939,4.11,-2.54,3.91,6.21
6.949,3.10,-2.05,3.10,4.84
6.959,2.13,-1.41,2.25,3.40
6.969,1.37,-0.84,1.65,2.30
6.979,0.97,-0.06,1.58,1.85
6.989,0.86,0.19,1.70,1.91
6.999,0.97,0.11,1.84,2.09
7.009,1.11,-0.02,1.96,2.25
7.019,1.19,-0.30,1.76,2.15
7.029,1.30,-0.64,1.38,2.01
7.039,1.43,-1.19,0.94,2.08
7.049,1.43,-2.15,0.15,2.59
7.059,1.29,-3.01,-1.08,3.45
7.068,0.98,-3.15,-2.48,4.13
7.079,0.43,-2.50,-2.96,3.89
7.089,-0.39,-1.15,-2.37,2.66
7.099,-1.21,0.48,-2.23,2.58
7.109,-1.90,1.63,-2.22,3.34
7.118,-2.95,3.12,-2.81,5.14
7.129,-4.26,5.53,-2.74,7.50
7.139,-4.18,8.23,-1.26,9.32
7.148,-2.01,8.42,-1.14,8.73
7.159,0.41,5.69,-3.56,6.72
7.168,2.12,2.86,-4.53,5.76
7.178,2.90,2.06,-1.31,3.79
7.188,2.78,2.09,0.51,3.52
7.198,1.97,1.97,0.41,2.82
7.208,1.43,1.74,0.81,2.39
7.218,1.61,1.42,0.64,2.24
7.228,2.19,1.03,-0.07,2.42
7.238,2.88,0.57,-0.63,3.00
7.248,3.38,0.06,-0.81,3.48
7.258,3.41,-0.45,-0.96,3.57
7.268,2.99,-1.06,-1.08,3.36
7.278,2.34,-1.66,-1.25,3.13
7.288,1.58,-2.03,-0.93,2.73
7.298,0.78,-1.93,-1.24,2.42
7.308,-0.11,-1.76,-1.30,2.19
7.318,-1.28,-1.68,-0.19,2.12
7.328,-2.25,-1.02,0.26,2.48
7.338,-2.79,0.52,0.59,2.90
7.348,-2.97,1.69,0.55,3.46
7.358,-2.91,2.50,0.69,3.90
7.368,-2.43,2.46,1.12,3.63
7.378,-1.56,1.08,1.78,2.60
7.388,-0.66,-0.80,1.46,1.79
7.398,-0.14,-2.00,0.99,2.24
7.408,-0.10,-2.57,0.61,2.65
7.418,-0.28,-2.66,0.26,2.69
7.428,-0.27,-2.64,0.01,2.65
7.438,-0.02,-2.70,0.11,2.70
7.448,0.51,-2.88,-0.33,2.94
7.458,1.14,-2.97,-0.37,3.20
7.468,1.51,-2.90,-0.62,3.33
7.478,1.27,-2.63,-0.92,3.06
7.488,0.54,-2.40,-1.41,2.84
7.498,-0.91,-1.99,-1.36,2.58
7.508,-2.59,-1.86,-0.73,3.27
7.518,-3.56,-2.35,-0.27,4.28
7.528,-3.85,-3.21,-0.43,5.03
7.538,-3.91,-3.68,-0.88,5.44
7.548,-4.08,-3.55,-1.39,5.59
7.558,-4.23,-3.30,-2.01,5.73
7.568,-4.10,-2.93,-2.45,5.60
7.578,-3.61,-2.17,-2.60,4.95
7.588,-2.81,-1.23,-2.77,4.14
7.598,-1.96,-0.40,-2.89,3.52
7.608,-1.15,0.21,-3.03,3.25
7.618,-0.41,0.60,-3.19,3.28
7.628,0.24,0.78,-2.96,3.07
7.638,0.73,1.07,-2.36,2.69
7.648,1.33,1.86,-1.84,2.93
7.658,1.82,3.28,-1.31,3.98
7.668,1.32,5.06,0.22,5.24
7.678,-0.93,6.72,0.67,6.82
7.687,-3.51,6.89,-0.29,7.74
7.698,-4.80,6.07,-1.25,7.83
7.708,-4.88,5.17,-1.94,7.37
7.718,-4.13,3.63,-2.52,6.05
7.727,-2.85,1.78,-2.24,4.04
7.737,-1.48,1.46,-2.02,2.90
7.748,-0.98,1.68,-1.65,2.55
7.757,-1.38,0.66,-1.01,1.83
7.768,-1.95,-0.99,-0.45,2.23
7.777,-2.07,-2.07,-0.06,2.93
7.787,-1.96,-3.33,0.04,3.86
7.797,-2.19,-5.85,-0.56,6.27
7.807,-2.43,-6.61,-2.21,7.38
7.818,-1.98,-3.42,-1.23,4.14
7.827,-0.92,1.08,0.49,1.50
7.837,-0.18,4.80,0.76,4.87
7.847,0.53,6.87,0.92,6.96
7.857,1.10,7.24,1.61,7.50
7.867,0.96,5.71,2.61,6.35
7.877,0.97,3.73,2.99,4.88
7.887,2.36,2.56,2.33,4.19
7.897,4.42,1.76,1.97,5.15
7.907,5.75,0.09,2.74,6.37
7.917,5.70,-2.11,3.70,7.12
7.927,4.66,-2.89,4.29,6.97
7.937,3.64,-2.86,4.12,6.20
7.947,2.85,-2.32,3.71,5.22
7.957,2.07,-1.93,2.98,4.10
7.967,1.19,-1.65,2.35,3.11
7.977,0.57,-0.87,1.89,2.16
7.987,0.18,-0.26,1.59,1.62
7.997,0.11,-0.32,1.61,1.65
8.007,0.45,-0.41,1.95,2.04
8.017,1.12,-0.33,2.47,2.74
8.027,1.82,0.03,2.75,3.30
8.037,1.87,0.25,2.65,3.25
8.047,1.10,0.18,2.30,2.56
8.057,-0.09,-0.14,0.95,0.96
8.067,-0.97,-0.81,-1.00,1.61
8.077,-1.12,-1.13,-2.28,2.78
8.087,-0.77,-0.79,-2.17,2.43
8.097,-0.24,-0.14,-1.52,1.55
8.107,0.22,0.38,-1.34,1.41
8.117,0.19,0.73,-1.89,2.03
8.127,-0.79,1.50,-3.03,3.47
8.137,-1.35,3.73,-3.98,5.62
8.147,-0.42,5.26,-3.47,6.32
8.157,0.74,4.44,-2.66,5.23
8.167,1.03,3.39,-2.13,4.13
8.177,0.67,3.96,-0.47,4.05
8.187,0.17,4.77,0.50,4.80
8.197,-0.23,3.98,-0.60,4.03
8.207,0.29,2.22,-0.52,2.30
8.217,1.38,0.87,0.05,1.63
8.227,2.16,0.07,-0.53,2.23
8.237,2.52,-0.31,-0.75,2.64
8.247,2.62,-0.37,-0.62,2.72
8.257,2.37,-0.23,-0.80,2.51
8.267,1.77,-0.16,-0.83,1.96
8.277,1.12,-0.24,-0.79,1.39
8.286,0.59,-0.42,-0.89,1.15
8.297,0.25,-0.49,-0.79,0.96
8.307,0.16,-0.01,-1.60,1.61
8.317,-0.30,0.51,-1.03,1.19
8.326,-0.78,1.08,0.25,1.36
8.337,-1.06,1.79,0.16,2.09
8.347,-1.42,2.33,0.62,2.79
8.357,-1.78,2.29,1.50,3.26
8.367,-1.77,1.17,2.01,2.92
8.377,-1.23,-0.78,1.73,2.26
8.386,-0.55,-2.69,0.92,2.90
8.397,-0.05,-3.95,0.16,3.95
8.407,0.13,-4.33,0.01,4.33
8.417,0.25,-4.34,0.19,4.35
8.426,0.43,-4.14,0.01,4.16
8.436,0.43,-3.46,-0.52,3.53
8.446,0.39,-2.59,0.00,2.62
8.456,0.33,-2.28,0.62,2.38
8.466,0.46,-2.57,0.22,2.62
8.476,0.72,-3.17,-1.38,3.53
8.486,0.60,-3.37,-1.78,3.86
8.496,-0.05,-3.25,-1.24,3.47
8.506,-0.92,-3.12,-0.56,3.30
8.516,-1.77,-3.14,-0.57,3.65
8.526,-2.54,-3.28,-1.05,4.28
8.536,-3.27,-3.41,-1.38,4.92
8.546,-3.75,-3.37,-1.51,5.26
8.556,-3.61,-3.29,-2.18,5.35
8.566,-3.12,-2.86,-2.89,5.12
8.576,-2.61,-1.90,-3.39,4.68
8.586,-2.27,-0.68,-3.67,4.36
8.596,-2.05,0.87,-3.67,4.30
8.606,-1.94,2.52,-3.41,4.67
8.616,-1.82,3.89,-2.86,5.16
8.626,-1.61,4.51,-2.17,5.26
8.636,-1.71,4.27,-1.16,4.74
8.646,-2.32,3.92,-0.25,4.57
8.656,-3.21,3.64,-0.14,4.85
8.666,-4.13,3.14,0.17,5.19
8.676,-4.45,2.38,0.53,5.07
8.686,-3.83,1.46,-0.06,4.10
8.696,-2.64,0.79,-1.76,3.27
8.706,-1.66,0.43,-2.73,3.22
8.716,-1.25,0.35,-2.32,2.66
8.726,-1.04,1.39,-2.02,2.66
8.736,-1.26,2.59,-1.89,3.45
8.746,-1.66,1.64,-1.47,2.76
8.756,-1.45,-0.06,-1.01,1.76
8.766,-0.82,-1.41,-0.55,1.72
8.776,-0.62,-2.99,-0.23,3.07
8.786,-0.85,-3.82,-1.11,4.06
8.796,-0.26,-1.77,-2.00,2.68
8.806,0.51,2.21,-0.76,2.39
8.816,1.02,5.67,0.96,5.84
8.826,1.12,7.42,1.17,7.59
8.836,1.21,7.10,1.08,7.28
8.846,0.85,4.96,1.57,5.27
8.856,0.31,2.50,1.61,3.00
8.866,0.89,1.32,1.19,1.98
8.876,2.60,1.18,1.22,3.10
8.885,4.00,0.19,2.29,4.61
8.896,4.14,-0.80,3.68,5.60
8.906,3.47,-0.87,4.82,6.01
8.916,2.66,-1.16,4.51,5.36
8.926,2.02,-0.92,3.56,4.20
8.936,1.51,-0.68,2.72,3.19
8.945,1.27,-0.69,2.14,2.58
8.956,1.36,-0.93,1.70,2.37
8.965,1.61,-1.40,1.74,2.75
8.976,1.93,-1.81,2.24,3.47
8.985,2.36,-2.05,3.01,4.34
8.995,2.77,-2.45,3.00,4.76
9.006,2.85,-2.67,2.17,4.47
9.015,2.40,-2.90,1.27,3.98
9.025,1.85,-3.36,0.09,3.83
9.035,1.79,-3.51,-1.02,4.07
9.045,2.18,-3.12,-1.64,4.14
9.056,2.46,-2.22,-1.49,3.63
9.065,2.35,-0.85,-1.48,2.91
9.076,1.93,0.61,-1.26,2.38
9.085,1.14,1.68,-1.71,2.66
9.095,-0.20,2.23,-2.70,3.51
9.105,-1.78,3.10,-3.10,4.73
9.115,-2.43,4.50,-3.43,6.16
9.125,-1.66,5.18,-4.24,6.90
9.135,-0.89,4.12,-5.27,6.75
9.145,-0.81,3.03,-3.82,4.94
9.155,-1.22,3.57,-0.67,3.83
9.165,-2.14,4.81,1.15,5.39
9.175,-2.98,4.95,1.03,5.87
9.185,-2.66,3.82,0.91,4.74
9.195,-0.97,2.18,0.68,2.48
9.205,1.08,0.73,0.14,1.31
9.215,2.86,-0.40,-0.47,2.92
9.225,4.08,-0.94,-0.70,4.24
9.235,4.58,-1.11,-0.82,4.78
9.245,4.37,-1.26,-0.76,4.61
9.255,3.68,-1.32,-1.16,4.08
9.265,2.77,-1.38,-1.37,3.38
9.275,1.80,-1.40,-0.73,2.39
9.285,0.91,-0.85,-0.47,1.33
9.295,0.15,0.01,-1.22,1.23
9.305,-0.74,0.99,-0.08,1.24
9.315,-1.30,2.23,0.49,2.62
9.325,-1.51,3.52,0.42,3.85
9.335,-1.64,4.64,0.81,4.99
9.345,-1.29,4.29,0.84,4.56
9.355,-0.74,2.40,0.61,2.58
9.365,-0.26,-0.21,0.42,0.54
9.375,0.09,-2.44,0.56,2.50
9.385,0.21,-3.54,0.82,3.64
9.395,0.21,-3.94,0.78,4.03
9.405,0.08,-3.67,0.76,3.75
9.415,-0.11,-3.10,1.00,3.26
9.425,-0.22,-2.71,0.69,2.80
9.435,-0.12,-2.51,0.07,2.51
9.445,0.25,-2.37,-0.40,2.42
9.455,1.01,-2.62,-0.86,2.93
9.465,1.42,-2.81,-1.11,3.34
9.475,0.97,-2.69,-0.93,3.01
9.485,-0.10,-2.78,-0.78,2.89
9.495,-1.36,-3.04,-0.82,3.43
9.505,-2.33,-3.51,-0.71,4.27
9.515,-2.91,-3.91,-0.43,4.89
9.524,-2.93,-4.14,-0.71,5.12
9.535,-2.79,-4.04,-1.71,5.20
9.545,-2.98,-3.39,-2.59,5.20
9.555,-3.38,-2.35,-2.98,5.09
9.565,-3.49,-1.39,-3.14,4.90
9.575,-3.31,-0.39,-2.97,4.47
9.584,-2.91,0.55,-2.72,4.02
9.595,-2.35,1.48,-2.27,3.59
9.604,-1.77,2.56,-1.72,3.55
9.615,-1.37,3.26,-1.57,3.87
9.624,-1.50,3.62,-1.30,4.13
9.634,-2.24,3.83,-1.09,4.56
9.644,-3.39,4.07,-1.58,5.53
9.654,-4.86,3.58,-1.43,6.20
9.664,-5.26,1.98,-0.87,5.69
9.674,-4.24,0.09,-0.99,4.35
9.684,-2.49,-1.50,-2.03,3.55
9.694,-0.50,-2.21,-3.58,4.24
9.704,0.79,-1.16,-3.35,3.63
9.714,1.38,1.33,-2.16,2.89
9.724,1.22,3.62,-2.16,4.39
9.734,0.28,2.91,-2.04,3.56
9.744,-0.54,1.20,-1.73,2.17
9.754,-1.13,0.19,-1.16,1.63
9.764,-1.92,-0.89,-0.86,2.29
9.774,-2.51,-0.88,-1.75,3.18
9.784,-2.23,1.55,-1.11,2.93
9.794,-1.75,4.82,0.88,5.20
9.804,-1.63,7.03,1.76,7.43
9.814,-1.19,6.68,1.51,6.95
9.824,-0.88,4.68,1.54,5.00
9.834,-0.40,2.83,1.49,3.22
9.844,1.34,2.32,1.01,2.86
9.854,4.03,2.45,0.95,4.81
9.864,6.02,0.84,1.80,6.34
9.874,5.91,-1.43,2.82,6.70
9.884,4.61,-1.79,3.91,6.30
9.894,3.26,-1.42,4.18,5.49
9.904,2.25,-0.67,3.99,4.63
9.914,1.52,-0.16,3.16,3.51
9.924,0.97,0.00,2.81,2.97
9.934,0.93,0.16,3.00,3.15
9.944,1.31,-0.05,3.03,3.30
9.954,1.92,-0.85,3.10,3.74
9.964,2.53,-1.78,2.98,4.30
9.974,2.95,-2.70,2.74,4.85
9.984,3.12,-3.13,2.33,5.00
9.994,3.02,-3.13,2.06,4.82
10.004,2.71,-3.05,1.70,4.42
10.014,2.39,-3.31,0.79,4.15
10.024,2.17,-3.61,-0.37,4.23
10.034,2.00,-3.53,-1.72,4.41
10.044,2.11,-2.84,-2.04,4.09
10.054,2.46,-1.84,-1.34,3.35
10.064,2.48,-0.80,-1.14,2.84
10.074,1.99,0.38,-1.85,2.75
10.084,1.24,1.58,-3.33,3.89
10.094,0.04,2.71,-4.66,5.39
10.104,-1.13,4.14,-4.12,5.94
10.114,-1.91,5.81,-4.59,7.65
10.124,-2.69,5.74,-6.00,8.72
10.134,-3.39,5.53,-3.35,7.30
10.143,-3.82,7.09,0.45,8.07
10.154,-4.15,8.28,2.31,9.55
10.164,-3.92,6.91,1.75,8.14
10.174,-2.19,4.25,0.87,4.86
10.184,0.28,2.09,0.44,2.15
10.193,2.18,0.84,0.01,2.33
10.203,3.42,0.25,-0.95,3.55
10.214,4.28,0.25,-1.10,4.42
10.223,4.88,0.31,-0.61,4.93
10.234,5.15,0.02,-0.90,5.23
10.243,4.92,-0.58,-1.55,5.19
10.253,4.22,-1.37,-1.86,4.81
10.263,3.16,-2.24,-1.20,4.05
10.273,1.73,-2.28,-0.23,2.87
10.283,0.52,-1.58,-1.41,2.18
10.293,-0.86,-0.78,-1.27,1.72
10.303,-1.98,0.29,-0.68,2.11
10.313,-2.60,1.73,-0.36,3.14
10.323,-2.96,2.79,0.50,4.10
10.333,-2.89,2.90,1.34,4.31
10.343,-2.46,1.72,2.16,3.70
10.353,-2.00,-0.23,2.86,3.50
10.363,-1.44,-2.29,1.54,3.11
10.373,-1.02,-3.83,0.29,3.98
10.383,-0.99,-4.85,0.84,5.02
10.393,-0.88,-5.18,1.23,5.39
10.403,-0.36,-5.16,0.76,5.23
10.413,0.23,-4.89,0.13,4.90
10.423,0.83,-4.54,-0.62,4.66
10.433,1.27,-3.87,-1.19,4.24
10.443,1.31,-3.29,-1.46,3.83
10.453,0.88,-3.02,-1.82,3.64
10.463,-0.00,-3.12,-1.96,3.69
10.473,-1.26,-3.37,-1.90,4.07
10.483,-2.69,-3.66,-1.73,4.86
10.493,-3.79,-4.01,-1.77,5.79
10.503,-4.38,-4.38,-1.91,6.48
10.513,-4.50,-4.56,-1.79,6.65
10.523,-3.92,-4.33,-1.55,6.05
10.533,-2.81,-3.61,-1.39,4.78
10.543,-1.65,-2.47,-1.41,3.29
10.553,-0.80,-1.24,-1.68,2.24
10.563,-0.19,-0.13,-1.97,1.98
10.573,0.20,0.88,-1.98,2.18
10.583,0.52,1.86,-1.84,2.67
10.593,0.80,2.70,-1.67,3.28
10.603,1.10,3.37,-1.68,3.92
10.613,1.47,4.11,-1.68,4.68
10.623,1.64,4.90,-1.29,5.33
10.633,1.54,5.72,-0.78,5.98
10.643,1.21,6.70,-0.83,6.86
10.653,0.23,6.93,-1.83,7.17
10.663,-1.05,4.75,-2.49,5.46
10.673,-1.62,1.67,-3.18,3.93
10.683,-1.85,-0.62,-3.64,4.13
10.693,-2.23,-2.62,-4.10,5.35
10.703,-2.74,-3.94,-3.69,6.05
10.713,-3.16,-4.26,-2.90,6.05
10.723,-3.28,-3.67,-2.21,5.40
10.733,-3.30,-2.74,-1.05,4.42
10.743,-3.60,-1.86,-0.60,4.10
10.752,-3.86,-0.89,-1.46,4.22
10.763,-4.09,-0.76,-2.25,4.73
10.773,-3.74,-1.55,-2.94,5.00
10.782,-2.87,-2.04,-3.02,4.64
10.793,-1.58,-1.50,-3.33,3.98
10.802,0.02,0.18,-3.73,3.73
10.813,1.07,2.22,-3.09,3.95
10.822,1.44,3.81,-1.55,4.35
10.833,1.39,4.69,-0.02,4.89
10.843,0.85,4.13,1.50,4.48
10.852,0.89,2.60,0.70,2.84
10.862,2.36,1.15,-1.06,2.83
10.873,5.07,0.18,-2.32,5.58
10.883,6.55,-0.99,-1.24,6.73
10.892,5.46,-1.92,0.90,5.86
10.902,3.28,-2.81,2.24,4.86
10.912,1.43,-3.66,1.83,4.33
10.922,0.28,-3.83,0.29,3.85
10.932,-0.25,-3.10,-1.05,3.29
10.942,-0.23,-1.79,-1.52,2.36
10.952,0.46,-0.40,-0.61,0.86
10.962,1.68,0.10,0.77,1.85
10.973,2.70,-0.01,1.47,3.08
10.982,3.52,-0.28,1.65,3.90
10.992,4.23,-0.52,1.52,4.52
11.002,4.81,-0.72,1.41,5.07
11.012,5.19,-0.82,1.54,5.48
11.022,5.21,-1.07,1.64,5.57
11.032,4.91,-1.34,1.27,5.25
11.042,4.51,-1.77,0.88,4.92
11.052,3.96,-2.12,0.92,4.58
11.062,3.15,-2.14,0.98,3.94
11.072,2.29,-2.07,0.68,3.16
11.082,1.20,-1.92,0.29,2.28
11.092,-0.17,-2.18,-0.29,2.20
11.102,-1.74,-2.88,-1.06,3.53
11.112,-3.20,-3.61,-2.31,5.35
11.122,-4.33,-4.27,-3.62,7.08
11.132,-5.01,-4.86,-4.07,8.08
11.142,-5.23,-5.50,-4.18,8.66
11.152,-4.31,-5.26,-4.18,7.99
11.162,-1.60,-3.69,-3.74,5.49
11.172,1.81,-1.43,-3.77,4.42
11.182,4.89,0.64,-4.57,6.72
11.192,6.52,1.69,-4.72,8.23
11.202,5.92,1.88,-2.65,6.75
11.212,3.96,1.92,-0.64,4.45
11.222,2.57,2.93,0.32,3.91
11.232,1.13,4.88,1.59,5.25
11.242,-1.13,8.00,3.59,8.84
11.252,-2.46,11.69,4.94,12.93
11.262,-0.98,13.51,4.50,14.28
11.272,1.80,10.82,2.97,11.37
11.282,4.60,7.14,0.13,8.49
11.292,6.08,4.71,-3.15,8.31
11.302,5.76,2.08,-3.06,6.84
11.312,4.69,-1.05,-1.55,5.05
11.322,4.25,-2.59,-1.34,5.15
11.332,3.66,-2.16,-1.62,4.54
11.342,2.63,-0.63,-3.28,4.25
11.352,1.43,0.93,-5.15,5.43
11.361,0.26,1.48,-5.69,5.88
11.372,-0.73,1.83,-3.67,4.17
11.382,-1.30,1.61,0.45,2.11
11.392,-1.37,1.13,3.14,3.61
11.402,-0.93,0.63,2.52,2.76
11.412,-0.17,-0.40,0.98,1.07
11.421,0.08,-1.41,0.11,1.42
11.432,-0.14,-2.39,-0.45,2.44
11.442,-0.27,-3.28,-0.03,3.29
11.451,-0.31,-3.67,0.32,3.70
11.461,-0.24,-3.99,0.18,4.00
11.472,-0.04,-4.13,-0.18,4.13
11.481,-0.09,-3.67,-0.97,3.79
11.492,-0.36,-2.78,-1.67,3.26
11.501,-0.63,-1.68,-2.11,2.77
11.511,-0.83,-0.42,-2.30,2.48
11.521,-0.83,0.77,-2.33,2.59
11.531,-0.73,1.57,-2.21,2.81
11.541,-0.59,1.67,-2.15,2.78
11.551,-0.39,1.09,-2.39,2.66
11.561,-0.06,0.02,-2.47,2.47
11.571,0.36,-1.34,-2.33,2.71
11.581,0.53,-2.43,-2.40,3.46
11.591,0.43,-3.23,-3.09,4.49
11.601,0.37,-3.58,-3.89,5.30
11.611,0.40,-3.40,-4.50,5.65
11.621,0.36,-3.03,-4.78,5.67
11.631,0.24,-3.01,-4.78,5.65
11.641,-0.04,-3.68,-4.04,5.47
11.651,-0.62,-4.98,-2.66,5.68
11.661,-1.20,-5.95,-1.46,6.25
11.671,-1.16,-6.03,-1.10,6.24
11.681,-0.57,-5.87,-1.91,6.20
11.691,0.01,-5.71,-3.20,6.55
11.701,0.15,-5.04,-4.47,6.73
11.711,0.10,-4.61,-5.40,7.10
11.721,0.50,-5.08,-5.80,7.72
11.731,0.99,-5.47,-5.93,8.13
11.741,1.38,-5.26,-5.69,7.87
11.751,1.69,-4.33,-5.10,6.90
11.761,2.07,-2.01,-5.78,6.46
11.771,2.43,3.09,-7.18,8.18
11.781,1.81,10.57,-7.76,13.24
11.791,0.15,17.32,-7.24,18.77
11.801,-1.68,22.07,-4.90,22.67
11.812,-3.07,23.28,-2.80,23.65
11.822,-4.10,16.94,0.63,17.44
11.831,-4.21,8.73,4.02,10.50
11.841,-4.21,1.58,5.01,6.73
11.851,-4.42,-3.24,3.96,6.77
11.861,-3.45,-4.10,0.87,5.43
11.871,-0.71,-4.05,-2.74,4.94
11.881,1.89,-4.88,-6.31,8.20
11.891,3.86,-4.62,-9.59,11.32
11.901,5.65,-3.12,-11.27,12.99
11.911,7.02,-1.17,-9.68,12.01
11.921,7.57,0.46,-6.89,10.24
11.931,7.56,2.59,-4.11,8.99
11.941,7.01,4.44,-1.26,8.40
11.951,5.97,4.29,0.45,7.36
11.961,5.11,3.78,0.96,6.43
11.971,4.84,3.56,0.86,6.07
11.981,5.00,3.01,0.70,5.88
11.991,5.19,2.23,1.06,5.74
12.001,4.97,1.52,1.53,5.42
12.011,4.30,1.17,1.37,4.66
12.021,3.50,1.02,0.65,3.70
12.030,3.10,0.70,-0.30,3.19
12.040,2.91,0.06,-1.10,3.11
12.051,2.68,-0.89,-1.69,3.29
12.061,2.62,-1.60,-1.67,3.50
12.070,2.95,-1.95,-1.21,3.74
12.080,3.39,-2.23,-0.86,4.15
12.091,3.52,-2.45,-0.97,4.40
12.101,3.19,-2.78,-1.36,4.44
12.110,2.79,-2.74,-1.55,4.21
12.120,2.45,-1.93,-1.58,3.50
12.130,2.21,-0.61,-2.30,3.25
12.140,1.79,1.28,-3.58,4.20
12.151,1.69,3.84,-4.66,6.27
12.160,1.91,6.41,-5.76,8.82
12.170,1.53,7.34,-5.55,9.33
12.180,0.44,6.47,-3.92,7.58
12.190,-0.10,6.19,-2.21,6.57
12.200,1.08,7.50,-0.08,7.58
12.210,2.59,8.58,0.51,8.97
12.220,2.48,7.30,-1.15,7.80
12.230,1.21,5.19,-1.76,5.61
12.240,-0.04,4.48,-0.54,4.51
12.250,-0.51,4.71,1.06,4.85
12.260,0.22,4.58,1.74,4.91
12.270,2.15,3.57,1.00,4.29
12.280,4.15,1.89,-0.46,4.58
12.290,5.42,0.17,-1.12,5.54
12.300,5.53,-0.90,-1.18,5.73
12.310,4.61,-1.34,-1.08,4.92
12.320,3.03,-1.18,-0.99,3.40
12.330,1.34,-0.67,-0.61,1.62
12.340,0.03,-0.13,-0.36,0.38
12.350,-0.58,0.22,-0.19,0.65
12.360,-0.42,0.24,-0.56,0.74
12.370,-0.06,0.33,-2.35,2.37
12.380,-0.40,0.27,-1.27,1.36
12.390,-0.62,0.05,-0.23,0.66
12.400,-0.64,0.20,0.06,0.67
12.410,-0.57,0.12,0.62,0.85
12.420,-0.32,-0.28,0.96,1.05
12.430,0.07,-0.89,0.76,1.17
12.440,0.44,-1.37,0.12,1.45
12.450,0.58,-1.64,-0.68,1.87
12.460,0.59,-1.71,-0.79,1.98
12.470,0.58,-1.79,-0.70,2.01
12.480,0.68,-2.09,-1.21,2.50
12.490,0.93,-2.47,-1.39,2.98
12.500,1.01,-2.82,-0.05,3.00
12.510,0.53,-2.66,0.92,2.87
12.520,-0.59,-2.30,0.75,2.49
12.530,-1.75,-2.31,0.82,3.01
12.540,-2.13,-2.51,0.55,3.34
12.550,-1.75,-2.76,0.03,3.27
12.560,-1.19,-2.94,-0.61,3.23
12.570,-1.00,-2.97,-1.12,3.33
12.580,-1.18,-2.90,-1.06,3.30
12.590,-1.38,-2.91,-0.77,3.31
12.600,-1.44,-2.86,-0.82,3.31
12.610,-1.38,-2.60,-1.03,3.12
12.619,-1.34,-2.13,-1.27,2.81
12.630,-1.23,-1.49,-1.59,2.50
12.640,-1.07,-0.77,-1.88,2.30
12.650,-1.04,-0.02,-1.99,2.24
12.660,-1.02,0.48,-1.94,2.24
12.669,-0.97,1.02,-1.71,2.22
12.679,-0.83,1.63,-1.42,2.32
12.690,-0.70,2.57,-1.08,2.87
12.700,-0.81,3.86,-0.40,3.96
12.709,-1.34,5.03,0.18,5.21
12.719,-2.40,5.84,0.55,6.34
12.729,-3.52,5.69,0.83,6.75
12.739,-3.52,4.05,0.42,5.38
12.750,-2.50,2.14,-0.62,3.35
12.759,-1.00,0.47,-2.19,2.46
12.769,0.19,-0.62,-3.37,3.44
12.779,0.54,-0.78,-3.63,3.75
12.789,0.21,-0.20,-2.72,2.74
12.799,-0.48,-0.12,-1.41,1.50
12.809,-1.22,-0.33,-0.94,1.58
12.819,-1.82,-0.99,-0.63,2.16
12.829,-2.14,-2.41,-0.26,3.23
12.839,-2.72,-4.89,-0.19,5.60
12.849,-3.62,-5.95,-0.81,7.01
12.859,-3.53,-3.58,-1.68,5.30
12.869,-2.15,0.72,-1.23,2.58
12.879,-0.58,5.08,0.45,5.14
12.890,0.88,8.03,1.49,8.21
12.899,2.00,9.12,1.54,9.46
12.909,2.45,7.78,1.87,8.36
12.919,1.75,4.52,2.49,5.45
12.929,1.19,1.58,1.85,2.71
12.939,2.33,0.49,0.24,2.39
12.949,4.30,0.36,0.14,4.32
12.959,5.21,0.34,1.41,5.41
12.969,4.60,0.21,2.74,5.36
12.979,3.33,0.04,3.70,4.98
12.989,2.23,-0.30,3.55,4.20
12.999,1.31,-0.48,2.74,3.08
13.009,0.76,-0.29,2.46,2.59
13.019,0.64,-0.11,2.44,2.52
13.029,0.63,-0.03,2.44,2.52
13.039,0.95,-0.54,2.54,2.76
13.049,1.81,-0.96,2.98,3.62
13.059,2.77,-1.22,2.95,4.23
13.069,3.16,-1.71,2.22,4.22
13.078,3.15,-2.25,1.86,4.29
13.089,2.88,-2.97,1.36,4.36
13.099,2.43,-3.97,-0.12,4.66
13.109,1.85,-4.58,-1.14,5.07
13.119,1.56,-4.43,-1.09,4.82
13.129,1.81,-3.86,-0.65,4.31
13.138,1.98,-3.31,-1.20,4.04
13.149,1.07,-1.34,-2.67,3.18
13.159,0.03,3.77,-4.00,5.50
13.169,-0.43,8.34,-5.41,9.95
13.179,-0.60,9.13,-4.65,10.26
13.189,-1.39,5.74,-2.35,6.36
13.199,-2.54,3.30,-1.12,4.32
13.209,-2.23,3.75,0.44,4.39
13.219,-0.53,5.35,1.33,5.54
13.229,0.43,4.93,-0.44,4.97
13.239,0.47,2.63,-1.58,3.10
13.249,0.51,1.25,-1.37,1.92
13.259,0.56,1.32,-1.13,1.82
13.269,0.64,1.59,-0.94,1.95
13.279,1.11,1.43,-0.47,1.87
13.289,1.65,1.11,-0.30,2.02
13.298,1.97,0.82,-0.27,2.15
13.309,2.14,0.46,-0.09,2.19
13.318,2.22,-0.00,-0.13,2.23
13.329,2.18,-0.27,-0.58,2.27
13.338,1.93,-0.25,-0.50,2.01
13.348,1.51,0.14,0.38,1.56
13.358,1.20,0.79,0.15,1.44
13.368,0.76,1.61,-0.89,1.99
13.378,0.09,1.80,0.04,1.80
13.388,-0.34,1.87,1.15,2.22
13.398,-0.61,1.77,1.81,2.60
13.408,-0.78,1.09,2.28,2.65
13.418,-0.53,0.03,1.76,1.84
13.428,0.01,-1.35,0.82,1.58
13.438,0.53,-2.30,0.14,2.36
13.448,0.91,-2.48,-0.19,2.64
13.458,1.28,-2.44,-0.33,2.78
13.468,1.62,-2.48,-0.10,2.97
13.478,1.80,-2.51,-0.03,3.09
13.488,1.78,-2.66,-0.12,3.21
13.498,1.69,-2.97,0.20,3.42
13.508,1.43,-3.24,-0.24,3.55
13.518,0.94,-3.23,-0.98,3.50
13.528,0.28,-3.08,-1.10,3.28
13.538,-0.40,-2.86,-0.77,2.99
13.548,-1.10,-2.68,-0.48,2.94
13.558,-1.87,-2.62,-0.29,3.23
13.568,-2.51,-2.69,-0.68,3.74
13.578,-2.74,-2.73,-1.27,4.07
13.588,-2.63,-2.83,-1.42,4.11
13.598,-2.18,-2.82,-1.30,3.79
13.608,-1.11,-2.73,-1.38,3.25
13.618,0.06,-2.48,-2.02,3.20
13.628,0.56,-1.85,-2.65,3.28
13.638,0.61,-1.05,-3.21,3.43
13.648,0.51,-0.08,-3.38,3.42
13.658,0.36,1.18,-3.14,3.38
13.668,0.32,2.64,-2.67,3.77
13.678,0.12,4.19,-1.99,4.64
13.688,-0.91,5.36,-1.14,5.55
13.698,-3.10,5.89,-0.14,6.65
13.708,-5.59,5.44,1.07,7.87
13.718,-6.98,4.12,2.51,8.49
13.728,-6.43,2.06,2.04,7.05
13.738,-4.44,-0.01,-0.36,4.45
13.748,-2.12,-1.50,-2.69,3.74
13.758,-0.18,-1.78,-3.05,3.53
13.768,0.97,-1.09,-2.44,2.84
13.778,1.22,0.21,-2.64,2.92
13.788,0.83,1.76,-3.14,3.70
13.798,0.09,1.88,-2.04,2.77
13.807,-0.47,1.07,-0.57,1.29
13.818,-0.89,-0.35,0.19,0.97
13.828,-1.55,-2.26,-0.28,2.76
13.837,-2.14,-2.31,-2.33,3.92
13.847,-2.62,-0.09,-1.84,3.20
13.857,-2.50,3.37,0.47,4.23
13.868,-1.83,6.08,1.65,6.55
13.877,-0.61,7.06,1.93,7.34
13.888,0.30,6.72,2.27,7.10
13.897,0.50,4.95,2.72,5.67
13.908,0.86,2.96,2.12,3.74
13.918,2.09,1.86,0.99,2.97
13.927,3.57,1.39,1.06,3.97
13.937,4.43,0.63,2.26,5.01
13.947,4.15,-0.04,3.74,5.59
13.957,3.44,-0.58,4.40,5.62
13.968,2.80,-0.76,4.32,5.20
13.977,2.16,-0.69,3.47,4.15
13.987,1.60,-0.71,2.62,3.15
13.997,1.25,-0.56,2.15,2.55
14.007,1.17,-0.78,2.17,2.59
14.017,1.37,-1.18,2.42,3.02
14.027,1.95,-1.39,2.53,3.48
14.037,2.59,-1.76,2.38,3.93
14.047,2.86,-2.14,2.19,4.19
14.057,2.83,-2.15,2.20,4.18
14.067,2.60,-2.40,1.74,3.94
14.077,2.62,-3.24,0.53,4.20
14.087,2.80,-3.94,-0.45,4.85
14.097,2.90,-3.83,-1.12,4.94
14.107,2.91,-2.95,-1.26,4.33
14.117,2.60,-1.70,-1.23,3.34
14.127,1.73,-0.22,-1.69,2.43
14.137,0.57,1.41,-2.55,2.96
14.147,-1.00,2.74,-3.25,4.37
14.157,-2.48,2.98,-2.46,4.59
14.167,-3.77,3.95,-2.44,5.98
14.177,-4.25,5.13,-5.14,8.41
14.187,-3.22,4.52,-5.08,7.52
14.197,-1.67,4.31,-2.48,5.25
14.207,-0.87,4.88,-0.48,4.98
14.217,-1.04,4.94,0.62,5.09
14.227,-1.26,4.00,0.77,4.26
14.237,-1.01,2.33,1.59,2.99
14.247,-0.53,1.29,1.68,2.19
14.257,0.22,0.90,0.76,1.20
14.267,1.32,0.64,-0.33,1.51
14.277,2.46,0.67,-1.17,2.81
14.287,3.34,1.09,-1.12,3.69
14.297,3.78,1.60,-0.44,4.13
14.307,3.70,1.95,0.09,4.18
14.317,3.31,1.72,0.38,3.75
14.327,2.84,0.96,0.51,3.04
14.337,2.42,0.52,-0.37,2.50
14.347,1.85,0.28,-1.71,2.53
14.357,0.77,0.39,-0.49,0.99
14.367,0.07,0.43,0.90,1.00
14.377,-0.16,0.80,0.79,1.13
14.387,-0.06,0.96,0.11,0.97
14.397,0.20,0.72,0.45,0.88
14.407,0.38,-0.10,1.18,1.24
14.417,0.59,-1.43,1.03,1.86
14.427,0.69,-2.49,1.41,2.94
14.436,0.66,-2.93,1.34,3.29
14.447,0.63,-3.23,0.40,3.31
14.456,0.29,-3.12,0.63,3.19
14.467,-0.17,-2.81,0.95,2.97
14.477,-0.33,-2.71,0.86,2.87
14.487,-0.24,-2.80,0.30,2.83
14.497,-0.03,-2.81,-0.01,2.81
14.507,0.20,-2.73,-0.23,2.75
14.517,0.17,-2.49,-0.38,2.52
14.527,0.19,-2.38,-0.37,2.41
14.536,0.10,-2.30,-0.28,2.32
14.547,-0.31,-2.35,0.15,2.37
14.556,-0.61,-2.50,0.09,2.58
14.567,-0.97,-2.59,-0.76,2.87
14.576,-1.72,-2.37,-1.46,3.27
14.586,-2.60,-2.02,-1.73,3.72
14.596,-3.09,-1.93,-1.82,4.08
14.606,-3.02,-1.71,-1.81,3.92
14.616,-2.63,-1.22,-1.79,3.41
14.626,-2.22,-0.66,-1.64,2.84
14.636,-1.83,-0.11,-1.72,2.51
14.646,-1.43,0.40,-2.00,2.49
14.656,-1.13,0.95,-2.47,2.88
14.666,-1.14,1.50,-2.92,3.48
14.676,-1.34,2.16,-2.82,3.80
14.686,-1.61,3.17,-2.20,4.18
14.696,-2.06,4.24,-1.84,5.06
14.706,-2.67,4.81,-1.74,5.77
14.716,-3.54,4.41,-0.90,5.73
14.726,-4.13,3.27,-0.06,5.27
14.736,-3.93,2.12,-0.06,4.47
14.746,-2.95,1.57,-0.74,3.42
14.756,-1.62,1.63,-1.63,2.82
14.766,-0.71,2.60,-2.18,3.47
14.776,-0.68,2.67,-2.16,3.50
14.786,-1.08,1.19,-1.89,2.48
14.796,-1.56,-0.64,-1.63,2.34
14.806,-1.84,-2.20,-1.76,3.36
14.816,-1.80,-3.87,-1.98,4.71
14.826,-1.59,-4.78,-2.00,5.42
14.836,-0.54,-2.99,-1.54,3.41
14.846,1.01,0.84,0.13,1.32
14.856,1.67,4.16,1.96,4.89
14.866,1.60,5.67,2.66,6.46
14.876,1.38,5.42,1.89,5.91
14.886,1.27,4.29,1.06,4.60
14.896,1.13,2.99,1.23,3.42
14.906,1.36,2.04,1.19,2.72
14.916,2.26,1.79,1.24,3.14
14.926,3.34,1.59,1.62,4.04
14.936,3.80,0.95,2.36,4.58
14.946,3.46,-0.36,2.93,4.55
14.956,2.56,-1.33,3.48,4.52
14.966,1.71,-1.04,3.54,4.07
14.976,1.16,-0.49,2.92,3.18
14.986,0.93,-0.07,2.34,2.52
14.996,1.15,0.10,1.92,2.24
15.006,1.72,-0.00,1.92,2.58
15.016,2.48,-0.38,2.27,3.38
15.026,3.34,-0.79,2.39,4.18
15.036,4.18,-1.17,2.35,4.93
15.046,4.80,-1.39,2.28,5.50
15.055,5.09,-1.50,2.20,5.74
15.066,4.96,-1.76,2.38,5.78
15.076,4.34,-2.10,2.49,5.42
15.086,3.32,-2.39,2.11,4.60
15.095,2.31,-2.46,1.34,3.63
15.105,1.57,-2.03,0.07,2.57
15.116,1.02,-1.27,-0.89,1.85
15.126,0.59,-0.61,-1.49,1.72
15.135,0.06,0.02,-1.97,1.97
15.145,-0.64,0.59,-1.91,2.10
15.155,-1.34,0.89,-1.80,2.41
15.166,-2.12,1.05,-2.15,3.20
15.176,-3.35,1.49,-2.56,4.46
15.186,-4.86,3.34,-3.94,7.09
15.195,-5.79,5.65,-4.56,9.29
15.205,-4.94,6.83,-2.72,8.86
15.215,-2.72,5.91,-2.27,6.89
15.225,-0.36,3.87,-2.90,4.85
15.235,2.15,3.05,-1.19,3.92
15.245,3.85,2.85,-0.40,4.80
15.255,3.80,2.54,-0.98,4.67
15.265,2.63,2.44,-0.35,3.60
15.275,1.07,2.67,-0.39,2.90
15.286,-0.35,3.36,-0.53,3.42
15.295,-1.12,3.87,-0.73,4.09
15.305,-0.69,3.42,-0.43,3.51
15.315,0.83,2.17,0.32,2.34
15.325,2.61,0.69,0.35,2.73
15.335,3.97,-0.59,-0.21,4.02
15.345,4.52,-1.63,-0.43,4.83
15.355,4.21,-2.52,-0.56,4.94
15.365,3.20,-2.76,0.12,4.22
15.375,1.83,-2.24,0.82,3.01
15.385,0.84,-1.03,-0.78,1.54
15.395,-0.41,0.49,-0.63,0.90
15.405,-1.49,1.91,0.18,2.43
15.415,-2.19,2.94,0.52,3.71
15.425,-2.42,3.37,0.56,4.19
15.435,-1.92,2.69,0.92,3.43
15.445,-0.99,0.88,1.69,2.15
15.455,-0.07,-1.27,1.22,1.76
15.465,0.43,-2.73,0.50,2.81
15.475,0.58,-3.25,1.10,3.48
15.485,0.64,-3.38,0.49,3.48
15.495,0.62,-3.49,-0.12,3.54
15.505,0.48,-3.25,0.16,3.29
15.515,0.34,-2.71,0.46,2.77
15.525,0.53,-2.41,0.08,2.47
15.535,0.87,-2.29,-0.17,2.46
15.545,1.37,-2.35,-0.19,2.72
15.555,1.57,-2.68,-0.65,3.17
15.565,1.14,-2.99,-1.18,3.41
15.575,-0.01,-3.05,-1.08,3.24
15.585,-1.75,-3.01,-0.34,3.50
15.595,-3.23,-3.04,0.26,4.44
15.604,-3.78,-3.33,-0.03,5.04
15.615,-3.50,-3.50,-0.90,5.03
15.625,-3.17,-3.24,-1.74,4.86
15.635,-3.18,-2.89,-2.01,4.74
15.644,-3.06,-2.47,-2.03,4.43
15.654,-2.53,-1.93,-2.22,3.88
15.665,-1.91,-1.24,-2.64,3.49
15.675,-1.55,-0.50,-3.03,3.44
15.685,-1.42,0.28,-3.11,3.43
15.695,-1.35,0.88,-3.07,3.47
15.704,-1.02,1.40,-2.83,3.32
15.714,-0.44,1.79,-2.35,2.98
15.725,-0.12,2.34,-1.83,2.97
15.735,-0.58,3.28,-1.10,3.50
15.744,-1.74,4.38,-0.54,4.74
15.754,-2.78,5.01,-0.58,5.75
15.765,-3.01,4.41,-0.87,5.41
15.774,-2.62,2.86,-1.38,4.11
15.785,-1.94,1.07,-2.42,3.28
15.794,-1.23,-0.05,-3.30,3.52
15.804,-0.87,-0.37,-3.06,3.21
15.815,-0.65,-0.17,-2.67,2.75
15.824,-0.36,0.31,-2.41,2.46
15.834,-0.40,1.53,-2.64,3.08
15.844,-0.74,2.47,-2.03,3.28
15.854,-1.28,2.12,-0.72,2.58
15.864,-1.88,0.77,0.05,2.03
15.874,-1.98,-0.81,0.65,2.23
15.884,-2.05,-2.56,-0.88,3.39
15.894,-2.59,-2.06,-1.83,3.78
15.904,-2.35,0.55,-0.69,2.51
15.914,-1.99,3.71,0.94,4.31
15.924,-1.46,5.69,2.28,6.30
15.934,-0.43,5.97,2.07,6.33
15.944,0.28,5.18,2.08,5.59
15.954,0.85,4.01,2.34,4.72
15.964,1.91,2.67,2.01,3.85
15.974,3.81,2.15,1.33,4.57
15.984,5.54,1.72,1.61,6.02
15.994,6.13,0.31,2.83,6.76
16.004,5.25,-0.92,4.01,6.67
16.014,3.83,-1.09,4.04,5.67
16.024,2.94,-0.78,3.30,4.49
16.034,2.48,-0.20,2.81,3.75
16.044,2.19,0.34,2.62,3.43
16.054,2.07,0.82,2.52,3.37
16.064,2.29,1.04,2.46,3.52
16.074,2.78,0.57,2.50,3.78
16.084,3.36,-0.37,2.54,4.23
16.094,3.82,-1.28,2.37,4.67
16.104,4.06,-1.78,1.90,4.82
16.114,3.96,-1.74,1.69,4.65
16.124,3.81,-1.69,2.09,4.66
16.134,3.85,-1.70,1.93,4.63
16.144,3.79,-2.21,0.81,4.46
16.154,3.40,-2.86,-0.30,4.46
16.164,2.98,-2.93,-1.44,4.42
16.174,2.51,-2.32,-1.84,3.89
16.184,1.85,-1.32,-1.46,2.70
16.194,0.80,-0.37,-1.13,1.43
16.204,-0.97,0.14,-1.59,1.87
16.214,-3.29,2.04,-2.78,4.77
16.224,-5.23,5.58,-3.62,8.46
16.234,-6.07,8.62,-3.75,11.19
16.244,-5.29,8.89,-1.64,10.48
16.254,-3.05,6.09,-1.17,6.91
16.264,-0.97,2.83,-2.45,3.86
16.274,0.38,1.49,-2.09,2.60
16.284,1.17,1.76,-1.62,2.67
16.293,0.97,2.08,-1.80,2.92
16.304,0.64,2.03,-0.81,2.27
16.313,0.55,2.15,-0.37,2.25
16.324,0.43,2.33,-0.26,2.38
16.333,0.52,2.31,-0.43,2.41
16.344,1.21,1.73,-0.95,2.31
16.354,2.29,0.81,-1.10,2.67
16.363,3.21,0.08,-0.92,3.34
16.373,3.72,-0.43,-0.91,3.86
16.383,3.67,-0.74,-1.10,3.90
16.393,3.07,-0.89,-0.93,3.33
16.403,1.97,-0.79,-0.29,2.14
16.413,0.78,-0.61,-0.08,0.99
16.423,-0.22,-0.19,-0.50,0.57
16.433,-1.05,0.36,0.23,1.14
16.443,-1.39,0.44,1.09,1.82
16.453,-1.22,0.74,-0.57,1.54
16.463,-1.39,0.82,0.02,1.62
16.473,-1.55,1.15,1.31,2.34
16.483,-1.34,1.20,1.81,2.56
16.493,-0.78,0.58,1.94,2.17
16.503,-0.14,-0.66,1.75,1.88
16.513,0.35,-2.07,1.54,2.61
16.523,0.57,-3.09,1.48,3.47
16.533,0.53,-3.37,1.61,3.77
16.544,0.63,-3.54,0.82,3.69
16.553,0.75,-3.50,0.51,3.62
16.563,0.81,-3.29,0.54,3.43
16.573,0.93,-2.81,0.83,3.08
16.583,1.10,-2.21,0.45,2.50
16.593,1.00,-1.71,-0.53,2.05
16.603,0.59,-1.81,-1.27,2.28
16.613,-0.31,-1.93,-1.29,2.34
16.623,-1.27,-1.82,-0.86,2.38
16.633,-2.06,-1.96,-0.40,2.87
16.643,-2.71,-2.34,0.08,3.58
16.653,-3.13,-2.86,0.31,4.25
16.663,-3.32,-3.39,-0.35,4.76
16.673,-3.10,-3.58,-1.00,4.84
16.683,-2.24,-3.44,-1.42,4.34
16.693,-1.06,-2.95,-1.92,3.68
16.703,-0.25,-2.20,-2.14,3.08
16.713,-0.07,-1.43,-2.62,2.98
16.723,-0.26,-0.80,-3.14,3.25
16.733,-0.40,-0.24,-3.33,3.36
16.743,-0.29,0.47,-3.27,3.31
16.753,0.12,1.35,-3.21,3.48
16.763,0.70,2.42,-3.19,4.07
16.773,0.95,3.82,-2.81,4.84
16.783,0.49,5.19,-2.00,5.58
16.793,-0.71,5.97,-1.47,6.19
16.803,-2.26,5.87,-1.41,6.45
16.813,-3.46,4.80,-1.04,6.01
16.823,-3.92,3.31,-0.62,5.16
16.833,-3.91,1.88,-0.46,4.37
16.843,-3.59,0.68,-0.97,3.78
16.853,-3.20,-0.06,-1.39,3.49
16.863,-2.86,-0.29,-1.54,3.26
16.873,-2.36,-0.27,-1.64,2.89
16.883,-1.76,0.32,-2.50,3.07
16.893,-1.00,0.81,-2.86,3.13
16.903,-0.55,0.20,-2.04,2.12
16.913,-0.18,-1.26,-0.51,1.37
16.923,-0.15,-2.86,0.26,2.87
16.933,-0.61,-4.14,-1.05,4.32
16.943,-1.47,-3.19,-2.38,4.24
16.953,-2.14,-0.11,-1.24,2.48
16.962,-2.13,3.30,0.48,3.96
16.972,-1.61,5.44,1.24,5.81
16.983,-0.81,6.30,1.81,6.61
16.992,-0.07,5.73,2.44,6.23
17.002,0.33,4.25,2.92,5.17
17.012,0.45,2.38,2.84,3.73
17.022,0.88,0.86,2.32,2.63
17.032,2.17,0.21,1.36,2.56
17.042,3.76,0.29,1.12,3.93
17.052,5.11,-0.03,1.58,5.35
17.062,5.45,-0.46,2.31,5.94
17.072,4.91,-0.68,3.01,5.80
17.082,4.20,-0.91,3.31,5.42
17.092,3.60,-0.93,3.24,4.93
17.102,3.10,-0.86,2.96,4.38
17.112,2.67,-0.43,2.44,3.64
17.122,2.40,-0.07,1.91,3.06
17.132,2.23,-0.12,1.99,2.99
17.142,2.32,-0.37,2.50,3.43
17.152,2.74,-0.48,2.93,4.04
17.162,3.34,-0.44,3.13,4.60
17.172,3.65,-0.53,2.77,4.61
17.182,3.36,-0.93,2.25,4.15
17.192,2.65,-1.40,1.72,3.45
17.202,1.94,-1.94,0.87,2.88
17.212,1.48,-2.42,0.05,2.84
17.222,1.21,-2.64,-1.18,3.14
17.232,1.02,-2.29,-2.33,3.43
17.242,0.85,-1.33,-2.39,2.86
17.252,0.62,-0.06,-1.69,1.80
17.262,0.29,1.04,-1.82,2.12
17.272,-0.18,1.88,-1.49,2.41
17.282,-0.92,2.43,-1.63,3.06
17.292,-1.96,2.75,-2.66,4.30
17.302,-2.84,4.06,-3.19,5.89
17.312,-2.28,5.66,-3.26,6.92
17.322,-1.22,5.57,-4.64,7.35
17.332,-0.94,4.24,-5.07,6.68
17.342,-1.38,4.12,-2.92,5.23
17.352,-2.17,5.35,0.61,5.80
17.362,-3.08,5.56,2.19,6.72
17.372,-3.00,3.97,1.90,5.32
17.382,-1.25,2.55,0.90,2.97
17.392,0.85,1.89,0.11,2.07
17.402,2.33,1.51,-0.13,2.78
17.412,3.17,1.18,-0.25,3.39
17.422,3.54,0.93,-0.47,3.69
17.432,3.74,0.78,-1.06,3.96
17.442,3.86,0.54,-1.70,4.25
17.452,3.76,0.13,-1.32,3.99
17.462,3.21,-0.36,-0.53,3.27
17.472,2.25,-0.73,-0.08,2.36
17.482,1.08,-1.03,0.80,1.70
17.492,0.52,-1.04,-0.27,1.19
17.502,0.04,-1.09,-1.08,1.53
17.511,-0.66,-0.73,-0.24,1.01
17.522,-1.04,0.30,0.08,1.09
17.532,-1.05,1.18,0.78,1.76
17.542,-0.68,1.05,1.31,1.81
17.552,-0.30,0.32,1.37,1.44
17.562,0.00,-1.04,1.29,1.66
17.571,0.16,-2.44,1.12,2.69
17.581,0.14,-3.32,1.29,3.57
17.592,0.04,-3.69,1.64,4.04
17.602,0.14,-3.85,0.60,3.90
17.612,0.39,-3.72,0.24,3.75
17.621,0.71,-3.10,0.69,3.26
17.632,1.26,-2.51,0.61,2.88
17.641,1.78,-2.11,-0.26,2.77
17.651,1.91,-2.02,-1.29,3.07
17.661,1.31,-1.96,-1.23,2.66
17.671,-0.02,-1.89,-0.63,1.99
17.681,-1.29,-1.88,-0.34,2.30
17.691,-2.20,-1.95,-0.29,2.95
17.701,-3.03,-2.11,-0.22,3.70
17.711,-3.58,-2.48,-0.26,4.36
17.721,-3.66,-2.69,-0.16,4.54
17.731,-3.37,-2.82,-0.31,4.40
17.741,-3.02,-2.50,-0.65,3.98
17.751,-2.82,-1.97,-0.95,3.57
17.761,-2.62,-1.53,-1.27,3.29
17.771,-2.25,-1.08,-1.42,2.87
17.781,-1.72,-0.59,-1.65,2.46
17.791,-1.22,-0.11,-1.93,2.29
17.801,-0.81,0.31,-2.11,2.28
17.811,-0.52,0.65,-2.15,2.31
17.821,-0.36,0.85,-2.36,2.54
17.831,-0.29,0.93,-2.57,2.75
17.841,-0.23,1.01,-2.62,2.82
17.851,-0.10,1.22,-2.52,2.81
17.861,0.09,1.92,-2.28,2.98
17.871,0.05,3.27,-2.42,4.07
17.881,-1.09,4.81,-2.11,5.37
17.891,-3.51,5.75,-0.84,6.79
17.901,-5.04,5.15,-0.19,7.21
17.911,-5.11,3.39,0.27,6.14
17.921,-3.93,1.65,-0.42,4.29
17.931,-2.34,0.19,-2.01,3.09
17.941,-1.01,-0.44,-2.98,3.18
17.951,-0.08,-0.44,-2.72,2.75
17.961,0.51,0.06,-2.42,2.48
17.971,0.53,0.30,-1.84,1.94
17.981,0.26,-0.13,-1.68,1.71
17.991,-0.20,-1.12,-1.22,1.67
18.001,-0.76,-2.26,-0.62,2.46
18.011,-1.13,-3.88,-0.31,4.06
18.021,-1.57,-5.27,-1.08,5.60
18.031,-1.87,-3.89,-2.39,4.94
18.041,-1.84,-0.37,-1.09,2.17
18.050,-1.31,3.25,0.16,3.51
18.061,-0.77,5.59,0.45,5.66
18.071,-0.30,6.56,0.73,6.61
18.081,0.20,6.13,1.11,6.24
18.091,0.61,4.55,1.67,4.89
18.101,0.87,2.71,1.70,3.31
18.111,1.48,1.42,1.17,2.36
18.121,2.83,1.03,0.76,3.11
18.131,4.29,0.93,1.03,4.51
18.141,4.96,0.36,1.99,5.36
18.151,4.46,-0.67,2.75,5.29
18.161,3.34,-1.24,2.91,4.60
18.171,2.29,-1.25,2.75,3.79
18.181,1.55,-0.88,2.43,3.01
18.191,1.09,-0.33,2.30,2.57
18.201,0.96,0.09,2.19,2.40
18.210,1.18,0.43,2.25,2.58
18.221,1.69,0.57,2.63,3.17
18.230,2.38,0.34,3.09,3.92
18.241,3.17,0.04,3.26,4.55
18.250,3.78,-0.15,2.94,4.79
18.261,3.95,-0.11,2.57,4.71
18.270,3.64,-0.36,2.14,4.24
18.281,3.08,-0.81,1.43,3.49
18.290,2.49,-1.18,0.65,2.83
18.300,2.11,-1.62,-0.00,2.66
18.310,1.88,-2.01,-1.08,2.95
18.320,1.62,-2.12,-2.09,3.39
18.330,1.32,-1.71,-2.15,3.05
18.340,1.00,-1.13,-1.86,2.39
18.350,0.51,-0.81,-2.11,2.31
18.360,-0.51,-0.84,-2.36,2.56
18.370,-2.02,0.68,-2.77,3.49
18.380,-2.98,3.66,-3.39,5.81
18.390,-3.06,6.50,-3.68,8.08
18.400,-2.95,6.52,-3.47,7.95
18.410,-2.34,4.56,-2.83,5.85
18.420,-0.97,3.23,-0.79,3.47
18.430,-0.00,3.45,0.60,3.50
18.440,0.31,3.40,0.23,3.42
18.450,-0.11,2.48,-0.48,2.53
18.460,-1.02,2.24,-0.83,2.60
18.470,-1.70,2.90,-0.30,3.37
18.480,-1.92,3.66,0.14,4.14
18.490,-1.05,3.42,0.23,3.58
18.500,0.77,2.24,-0.20,2.38
18.510,2.33,1.33,-0.63,2.76
18.520,3.18,0.92,-0.18,3.32
18.530,3.56,0.94,-0.05,3.68
18.540,3.71,0.76,-0.54,3.83
18.550,3.41,0.04,-0.61,3.46
18.560,2.59,-0.74,-0.47,2.73
18.570,1.85,-1.25,0.24,2.24
18.580,1.53,-1.12,-0.20,1.91
18.590,1.11,-0.93,-1.39,2.01
18.600,0.51,-0.96,-1.17,1.59
18.610,0.09,-0.90,-0.35,0.97
18.620,-0.73,0.02,1.07,1.30
18.630,-1.32,1.43,2.17,2.91
18.640,-0.90,1.01,1.82,2.27
18.650,-0.08,-0.28,1.39,1.42
18.660,0.65,-2.02,1.44,2.57
18.670,1.03,-3.54,1.47,3.97
18.680,0.46,-3.37,1.37,3.67
18.690,-0.19,-2.47,-0.49,2.52
18.700,-0.79,-1.47,-0.33,1.70
18.709,-0.97,-0.93,0.46,1.42
18.720,-0.14,-1.24,1.00,1.60
18.729,1.02,-1.91,0.79,2.30
18.740,1.54,-2.26,0.42,2.77
18.750,1.67,-2.40,-0.01,2.92
18.760,1.52,-2.62,-1.19,3.25
18.770,0.83,-2.22,-1.38,2.75
18.780,0.22,-2.56,-1.33,2.89
18.790,-0.47,-2.95,-1.07,3.18
18.799,-1.04,-3.12,-1.33,3.55
18.810,-1.55,-2.93,-1.18,3.52
18.820,-1.83,-2.98,-1.07,3.65
18.829,-1.79,-2.88,-0.66,3.46
18.840,-1.67,-2.27,-0.62,2.89
18.850,-1.21,-1.36,-0.61,1.92
18.860,-0.54,-0.50,-1.18,1.40
18.869,-0.26,0.04,-1.72,1.74
18.879,-0.65,-0.09,-1.69,1.81
18.889,-1.09,-0.72,-2.13,2.49
18.900,-1.37,-0.72,-2.20,2.69
18.909,-1.44,-0.13,-2.49,2.88
18.919,-0.97,0.55,-3.16,3.35
18.929,-0.18,1.26,-3.33,3.57
18.939,0.58,1.98,-2.87,3.53
18.949,1.38,2.49,-2.24,3.62
18.959,1.91,2.78,-1.88,3.86
18.969,1.67,3.45,-1.40,4.08
18.979,0.91,4.27,-0.53,4.40
18.989,-0.47,4.85,-0.25,4.88
18.999,-1.61,4.56,-0.68,4.88
19.009,-2.13,3.56,-1.28,4.34
19.019,-2.25,2.60,-2.21,4.08
19.029,-2.28,0.71,-2.68,3.59
19.039,-2.70,-1.46,-2.41,3.90
19.049,-3.17,-2.24,-1.67,4.23
19.059,-2.72,-1.56,-0.64,3.20
19.069,-1.82,-0.92,0.28,2.06
19.079,-1.47,-0.96,0.45,1.82
19.089,-1.28,-1.31,-0.41,1.88
19.099,-1.02,-1.36,-1.42,2.21
19.109,-0.57,-1.34,-2.21,2.64
19.119,-0.25,-0.91,-2.16,2.36
19.129,-0.35,-0.26,-1.33,1.40
19.139,-0.44,0.15,-0.27,0.54
19.149,-0.76,-0.36,0.54,1.00
19.159,-1.01,-0.71,0.53,1.34
19.169,-1.05,-0.55,1.06,1.59
19.179,-0.65,-0.17,1.90,2.02
19.189,0.59,0.64,2.32,2.48
19.199,1.58,1.71,2.51,3.42
19.209,2.02,2.58,2.56,4.16
19.219,2.33,2.83,2.59,4.49
19.229,2.79,2.06,2.94,4.55
19.239,3.50,1.63,2.55,4.63
19.249,2.33,1.75,2.43,3.79
19.259,0.05,0.87,2.40,2.55
19.269,-1.41,-0.08,2.65,3.00
19.279,-1.87,-0.58,2.54,3.20
19.289,-1.56,-0.97,2.83,3.37
19.299,-0.79,-0.93,2.92,3.16
19.309,-0.24,-0.74,2.43,2.55
19.319,0.54,-0.95,1.83,2.13
19.329,1.46,-1.53,1.70,2.71
19.339,1.73,-1.81,2.04,3.23
19.349,1.65,-1.88,2.57,3.58
19.359,0.98,-1.48,2.67,3.20
19.369,-0.10,-1.44,2.81,3.16
19.379,-0.34,-1.39,3.01,3.33
19.388,-0.72,-1.12,3.20,3.47
19.399,-0.22,-1.41,1.20,1.86
19.409,0.39,-1.22,-0.76,1.49
19.419,1.11,-0.90,-0.06,1.44
19.428,1.76,-0.67,1.66,2.52
19.439,1.84,-0.44,2.74,3.33
19.448,2.04,-0.90,2.56,3.40
19.458,1.69,-0.67,1.96,2.67
19.469,0.89,0.66,0.50,1.22
19.478,-0.05,3.15,-1.39,3.44
19.488,-1.09,5.14,-3.21,6.16
19.498,-1.81,4.97,-4.58,7.00
19.508,-2.07,3.81,-5.03,6.64
19.518,-2.31,3.33,-3.62,5.43
19.528,-2.69,4.09,-1.48,5.12
19.538,-2.99,4.77,0.16,5.63
19.548,-3.60,4.82,1.04,6.10
19.558,-4.47,6.08,0.80,7.59
19.568,-4.78,6.22,0.40,7.85
19.578,-4.56,5.79,-0.91,7.43
19.588,-4.06,5.35,-1.40,6.86
19.598,-3.11,3.74,-0.24,4.87
19.608,-2.27,3.02,0.80,3.86
19.618,-1.02,3.09,2.49,4.10
19.628,-0.22,2.49,3.46,4.27
19.638,-0.46,1.43,4.48,4.72
19.648,-0.58,-1.94,4.42,4.86
19.658,-0.77,-4.70,5.06,6.95
19.668,-1.25,-5.10,4.52,6.93
19.678,-1.89,-3.76,4.64,6.26
19.688,-2.02,-2.57,4.87,5.87
19.698,-2.18,-1.67,3.98,4.84
19.708,-2.57,-1.38,2.61,3.92
19.718,-3.53,-1.63,1.78,4.28
19.728,-5.34,-2.39,0.97,5.93
19.738,-6.49,-2.70,1.16,7.13
19.748,-6.88,-3.84,4.49,9.07
19.758,-6.75,-6.41,5.78,10.96
19.768,-6.43,-6.79,5.94,11.08
19.778,-5.02,-4.43,5.27,8.52
19.788,-3.99,-3.43,4.04,6.63
19.798,-4.17,-4.10,2.50,6.36
19.808,-5.67,-4.22,1.59,7.24
19.818,-4.81,-3.41,-1.66,6.12
19.828,-6.04,-4.45,-2.69,7.97
19.838,-7.09,-4.60,-1.19,8.53
19.848,-6.60,-5.00,-1.59,8.43
19.858,-5.83,-5.33,-1.42,8.02
19.868,-4.85,-5.65,-0.67,7.48
19.878,-4.48,-5.69,-1.38,7.38
19.887,-4.32,-4.87,-2.16,6.86
19.898,-4.02,-3.95,-2.81,6.30
19.908,-4.28,-3.17,-4.33,6.87
19.918,-5.01,-2.69,-5.78,8.11
19.928,-5.49,-3.37,-5.66,8.57
19.938,-6.00,-4.34,-3.56,8.22
19.948,-6.25,-4.85,-1.51,8.06
19.958,-6.09,-4.62,-0.89,7.69
19.968,-5.58,-3.64,-2.20,7.02
19.978,-4.49,-3.05,-3.40,6.41
19.987,-3.45,-1.93,-3.93,5.57
19.998,-7.47,-0.41,-10.10,12.57
20.008,-7.96,-1.87,-7.69,11.23
20.018,-4.56,-3.48,-5.76,8.12
20.027,-5.57,-0.60,-6.28,8.42
20.038,-2.74,-0.22,-4.68,5.43
20.047,-0.13,-0.14,-2.89,2.90
20.058,0.40,-0.55,-2.32,2.42
20.067,-0.00,0.24,-1.93,1.94
20.078,-1.27,0.22,-2.46,2.78
20.087,-2.73,0.25,-2.37,3.62
20.097,-2.76,-2.42,-2.80,4.61
20.108,-4.04,-1.72,-3.69,5.73
20.117,-5.76,0.27,-3.42,6.70
20.127,-6.24,-0.21,-2.48,6.71
20.137,-7.59,-0.46,-1.52,7.75
20.147,-7.92,-0.42,0.35,7.94
20.157,-5.78,0.23,2.52,6.31
20.167,-3.32,1.43,1.68,3.99
20.177,-0.83,1.73,0.77,2.07
20.187,1.17,2.55,0.46,2.85
20.197,1.51,4.67,-0.04,4.91
20.207,1.13,4.77,-0.09,4.90
20.217,0.40,4.17,-1.40,4.42
20.227,-0.94,3.85,-2.49,4.68
20.237,-1.70,3.01,-2.26,4.13
20.247,-1.72,1.92,-1.69,3.08
20.257,-1.10,1.07,-1.08,1.88
20.267,-0.31,0.61,-0.66,0.95
20.277,-0.20,0.67,0.23,0.74
20.287,-0.92,0.88,0.37,1.33
20.297,-1.28,0.17,-0.89,1.57
20.307,-1.26,-0.69,-1.43,2.03
20.318,-1.84,-0.48,-1.14,2.22
20.327,-2.11,0.11,-0.78,2.25
20.337,-1.94,0.30,-0.40,2.00
20.347,-1.46,0.49,-0.48,1.62
20.357,-1.19,1.01,-0.32,1.59
20.367,-1.52,1.63,-0.62,2.31
20.377,-1.77,1.35,-1.19,2.53
20.387,-1.60,0.51,-1.70,2.39
20.397,-1.21,-0.13,-1.57,1.98
20.407,-1.00,-0.45,-1.09,1.55
20.417,-0.89,-0.24,-1.76,1.98
20.427,-1.00,0.09,-2.19,2.41
20.437,-0.68,0.74,0.80,1.28
20.447,-0.28,0.94,0.50,1.10
20.457,-0.44,0.84,0.87,1.29
20.467,-0.67,0.78,0.49,1.14
20.477,-0.42,0.68,0.51,0.95
20.487,0.61,-0.26,-0.64,0.92
20.497,-0.38,0.73,-0.33,0.89
20.507,-1.69,0.84,-0.37,1.93
20.517,-1.72,0.30,-0.84,1.94
20.527,-1.24,0.54,-1.04,1.70
20.537,-0.83,0.91,-0.85,1.50
20.547,-0.97,0.75,-0.28,1.26
20.557,-0.77,0.07,-0.02,0.77
20.567,-0.16,0.23,-1.35,1.38
