time,ax,ay,az,atotal
0.000,2.31,-1.18,-2.38,3.52
0.010,2.22,-1.15,-2.66,3.65
0.020,2.52,-0.86,-1.97,3.32
0.030,2.60,-0.52,-0.69,2.74
0.040,2.46,-0.14,0.51,2.51
0.050,2.36,0.32,1.03,2.59
0.060,2.33,0.73,1.05,2.65
0.070,2.02,0.76,0.77,2.29
0.080,2.46,0.12,0.79,2.59
0.090,2.76,-0.98,0.62,2.99
0.100,2.48,-1.65,0.96,3.13
0.110,2.23,-1.82,1.18,3.11
0.120,2.21,-1.33,0.90,2.74
0.130,2.51,-0.98,0.53,2.75
0.140,2.46,-0.82,-0.04,2.60
0.150,2.22,-0.83,-0.40,2.40
0.160,1.66,-0.72,-0.84,2.00
0.170,1.33,-0.50,-1.22,1.87
0.180,0.99,-0.26,-1.67,1.96
0.190,0.94,-0.15,-1.83,2.06
0.199,1.49,-0.32,-1.61,2.22
0.209,1.85,-0.77,-1.32,2.40
0.220,1.78,-0.91,-0.80,2.15
0.230,1.58,-0.76,-0.07,1.76
0.240,1.35,-0.44,0.35,1.46
0.250,1.27,-0.11,0.25,1.30
0.260,1.25,0.06,-0.29,1.28
0.269,1.24,0.18,-0.89,1.54
0.280,1.33,0.27,-1.20,1.81
0.289,1.47,0.31,-1.08,1.85
0.300,1.67,0.16,-0.70,1.82
0.309,1.80,0.11,-0.20,1.82
0.320,2.18,-0.10,-0.02,2.18
0.329,2.59,-0.42,-0.02,2.62
0.339,2.85,-0.50,0.14,2.90
0.349,2.99,-0.30,-0.09,3.01
0.359,2.95,0.03,-0.06,2.95
0.369,2.75,-0.01,0.49,2.80
0.379,2.47,-0.38,1.01,2.69
0.389,1.90,0.34,0.48,1.99
0.399,0.83,0.40,1.92,2.13
0.409,0.59,1.36,3.52,3.82
0.419,0.43,3.23,3.28,4.62
0.429,0.77,2.15,3.29,4.01
0.439,0.77,1.32,4.21,4.48
0.449,0.64,0.94,5.90,6.01
0.459,0.95,-0.11,7.71,7.77
0.469,0.68,-1.10,7.81,7.92
0.479,0.43,-1.48,6.50,6.68
0.489,0.88,-1.70,4.33,4.74
0.499,0.50,-2.73,1.19,3.03
0.509,0.32,-3.98,-1.52,4.27
0.519,1.06,-4.35,-1.74,4.80
0.529,1.85,-3.94,-0.37,4.37
0.539,2.43,-2.85,1.05,3.89
0.549,2.32,-1.85,3.10,4.29
0.559,1.99,-1.12,4.68,5.20
0.569,1.53,-2.17,5.21,5.85
0.579,-0.01,-3.44,2.67,4.35
0.589,-1.01,-2.64,-3.13,4.22
0.599,1.54,-2.04,-1.75,3.10
0.609,0.79,-3.41,-1.44,3.78
0.619,0.64,-3.01,0.41,3.11
0.629,-0.95,-1.29,2.84,3.27
0.639,-2.41,-0.42,3.75,4.48
0.649,-3.84,-1.34,4.50,6.07
0.659,-5.17,-4.45,4.17,8.00
0.669,-5.72,-7.27,4.05,10.10
0.679,-5.10,-7.80,3.31,9.89
0.689,-4.65,-6.05,1.96,7.88
0.699,-5.79,-2.14,3.20,6.95
0.709,-7.71,-0.23,2.76,8.19
0.719,-9.18,0.08,1.26,9.27
0.729,-10.85,0.37,2.78,11.21
0.739,-11.30,0.46,4.44,12.16
0.749,-11.22,1.03,4.81,12.25
0.759,-11.63,2.05,5.77,13.14
0.769,-12.30,2.11,7.37,14.49
0.779,-11.70,1.93,9.28,15.06
0.789,-9.94,2.28,11.00,15.00
0.799,-8.31,3.84,10.97,14.28
0.809,-6.83,4.91,9.39,12.61
0.819,-4.55,6.10,7.92,10.98
0.829,-2.65,7.87,7.68,11.31
0.839,0.82,9.24,7.31,11.81
0.849,5.35,9.40,5.98,12.36
0.859,10.91,6.09,6.13,13.92
0.869,19.73,-5.87,7.24,21.82
0.879,18.76,-4.99,10.52,22.07
0.889,13.42,-0.06,3.58,13.89
0.899,2.92,10.71,-4.74,12.07
0.909,-2.39,16.17,-8.56,18.45
0.920,0.87,14.81,-7.21,16.49
0.929,5.91,11.43,-5.22,13.88
0.939,7.43,5.58,-8.50,12.59
0.948,7.79,6.74,-12.98,16.57
0.959,4.41,8.99,-8.23,12.96
0.968,1.73,8.47,-10.38,13.50
0.978,3.14,9.49,-5.62,11.46
0.988,2.74,4.95,-2.93,6.37
0.998,2.95,1.27,-5.95,6.76
1.008,3.83,-1.02,-6.87,7.93
1.018,3.64,-1.47,-8.98,9.80
1.028,3.64,1.39,-10.43,11.13
1.038,3.99,4.25,-11.88,13.24
1.048,5.17,5.90,-11.47,13.90
1.058,6.36,4.93,-8.25,11.53
1.068,6.00,1.71,-4.62,7.77
1.078,5.36,-1.59,-4.11,6.94
1.088,4.57,-2.82,-3.99,6.69
1.098,3.09,-3.33,-2.12,5.01
1.108,1.55,-3.67,-3.36,5.21
1.118,1.33,-3.30,-2.41,4.29
1.128,1.92,-4.07,-0.49,4.53
1.138,3.40,-2.17,1.04,4.16
1.148,4.89,-3.07,3.23,6.62
1.158,5.24,-1.76,1.39,5.70
1.168,5.96,-4.14,2.56,7.70
1.178,6.37,-8.73,5.59,12.17
1.188,7.49,-9.99,4.91,13.42
1.198,7.25,-8.81,5.42,12.64
1.208,5.85,-7.31,5.58,10.90
1.218,3.49,-6.73,5.97,9.65
1.228,1.16,-6.30,6.91,9.42
1.238,-0.09,-5.97,7.18,9.33
1.248,0.35,-5.52,6.44,8.49
1.258,1.05,-5.17,6.61,8.46
1.268,0.87,-5.25,6.92,8.73
1.278,0.36,-4.66,5.80,7.45
1.288,0.53,-1.76,2.81,3.36
1.298,0.94,-0.34,0.70,1.22
1.308,0.52,-2.40,2.35,3.40
1.318,-0.18,-3.75,2.72,4.64
1.328,-0.96,-2.52,-0.43,2.73
1.338,-1.00,-0.79,-2.83,3.10
1.348,-2.75,-1.43,-4.79,5.70
1.358,-2.89,3.03,-7.81,8.86
1.368,-0.09,5.22,-7.36,9.02
1.378,3.73,3.89,-3.18,6.26
1.388,5.28,1.89,1.22,5.73
1.398,4.06,0.51,4.10,5.79
1.408,3.07,0.33,3.60,4.74
1.418,3.11,-0.43,4.24,5.27
1.428,5.27,-0.70,2.20,5.75
1.438,4.69,1.27,-0.58,4.90
1.448,3.28,4.67,-2.81,6.36
1.458,5.08,6.66,-2.83,8.84
1.468,5.47,5.98,-1.33,8.21
1.478,4.90,6.56,-0.31,8.20
1.488,6.37,6.15,1.66,9.01
1.498,6.68,5.42,4.43,9.68
1.508,5.61,2.81,5.70,8.48
1.518,3.70,2.70,3.13,5.55
1.528,0.58,5.83,2.07,6.22
1.538,-1.53,6.55,0.09,6.73
1.548,-8.10,1.19,2.49,8.55
1.558,-5.90,-2.59,-0.80,6.49
1.567,-3.95,-4.73,-0.00,6.17
1.578,-4.44,-6.23,2.26,7.98
1.588,-4.66,-6.68,3.36,8.81
1.598,-4.32,-6.22,3.30,8.26
1.608,-3.29,-5.16,3.26,6.94
1.618,-2.49,-4.75,1.93,5.70
1.627,-1.02,-4.42,0.23,4.54
1.638,2.02,-2.10,-3.51,4.56
1.647,5.19,6.03,-10.40,13.10
1.658,5.36,13.98,-12.32,19.38
1.667,4.94,12.67,-6.52,15.08
1.678,3.31,6.94,-0.40,7.70
1.687,1.81,2.90,4.18,5.40
1.697,1.17,-0.37,5.37,5.51
1.707,-0.09,-1.42,7.95,8.08
1.717,-2.03,-1.34,10.19,10.48
1.727,-2.59,-1.97,8.93,9.51
1.737,-2.17,-2.70,6.82,7.65
1.747,-2.16,-2.98,5.76,6.84
1.758,-2.96,-3.71,6.32,7.90
1.767,1.99,-5.71,4.50,7.54
1.777,6.88,-2.84,-8.29,11.15
1.787,0.28,5.18,-15.32,16.17
1.797,-5.56,7.35,-11.34,14.61
1.807,-6.35,3.99,-4.91,8.96
1.817,-3.03,0.13,0.83,3.15
1.827,-0.60,-0.43,4.14,4.20
1.837,-0.26,-0.16,6.32,6.33
1.847,-0.11,-1.13,6.33,6.43
1.857,0.05,-2.31,3.99,4.61
1.867,0.40,-2.05,0.92,2.28
1.877,1.57,-1.47,-0.31,2.17
1.887,2.41,-0.44,-0.06,2.45
1.897,2.95,-0.91,-1.05,3.26
1.907,3.39,-2.60,-2.37,4.88
1.917,3.44,-3.86,-2.09,5.58
1.927,2.09,-4.29,-1.32,4.96
1.937,0.53,-4.06,-1.08,4.23
1.947,-0.26,-3.44,0.45,3.48
1.957,-0.61,-2.68,1.00,2.92
1.967,-0.35,-1.95,0.25,1.99
1.977,1.01,-1.25,0.18,1.61
1.987,2.71,0.04,-0.01,2.71
1.997,3.67,1.51,0.03,3.97
2.007,3.21,2.76,0.05,4.23
2.017,2.23,3.25,-0.74,4.01
2.027,1.24,2.51,-2.60,3.82
2.037,0.10,1.85,-6.60,6.86
2.047,0.08,2.27,-5.12,5.60
2.057,0.57,1.23,-2.80,3.11
2.067,0.95,1.74,-1.49,2.48
2.077,1.66,2.31,1.27,3.11
2.087,1.25,1.91,2.07,3.08
2.097,0.59,2.37,1.88,3.08
2.107,-0.49,3.85,1.76,4.26
2.117,-1.70,5.26,0.28,5.54
2.127,-2.23,4.78,-1.31,5.44
2.137,-3.13,3.91,-0.50,5.03
2.147,-3.94,3.16,1.65,5.31
2.157,-3.91,1.47,2.79,5.03
2.167,-3.33,0.28,2.37,4.09
2.177,-2.15,-1.63,1.49,3.08
2.187,-1.32,-3.86,1.34,4.30
2.197,-1.04,-4.89,0.97,5.09
2.207,-1.40,-5.15,1.55,5.55
2.217,-1.77,-4.29,1.51,4.88
2.227,-2.08,-2.07,2.46,3.83
2.237,-2.48,0.68,3.55,4.39
2.246,-2.56,2.50,3.74,5.18
2.256,-2.29,2.90,1.52,3.99
2.266,-1.06,1.50,-0.59,1.93
2.276,-0.19,2.71,1.64,3.17
2.286,3.41,8.29,4.19,9.90
2.297,3.04,-3.05,-5.41,6.91
2.306,0.66,-1.40,6.86,7.03
2.316,0.01,1.85,-1.52,2.40
2.326,-1.22,0.50,-1.39,1.91
2.337,-1.66,1.74,-0.64,2.48
2.346,-1.58,3.12,-1.66,3.87
2.356,-1.27,3.76,-2.71,4.81
2.366,-0.12,3.76,-2.32,4.42
2.376,-0.05,3.09,-2.15,3.76
2.386,-0.93,1.67,-2.77,3.37
2.397,-0.41,0.57,-2.61,2.71
2.406,0.46,-0.45,-2.24,2.34
2.416,0.33,-1.96,-2.59,3.26
2.426,0.80,-2.80,-3.00,4.18
2.437,2.13,-3.93,-2.77,5.26
2.446,3.07,-5.03,-3.04,6.63
2.456,2.86,-6.09,-2.81,7.29
2.466,2.73,-6.76,-2.10,7.59
2.476,2.97,-5.69,-2.54,6.90
2.486,2.56,-1.77,-3.57,4.74
2.496,1.74,1.95,-5.03,5.66
2.506,1.44,3.80,-5.30,6.68
2.516,1.70,4.55,-4.73,6.78
2.526,2.12,4.52,-4.33,6.61
2.536,2.41,4.01,-4.00,6.16
2.546,2.80,3.45,-3.47,5.64
2.556,3.57,3.08,-2.59,5.38
2.566,4.55,2.39,-2.12,5.55
2.576,5.42,1.39,-2.41,6.09
2.586,5.70,0.87,-2.68,6.36
2.596,5.41,0.93,-3.83,6.69
2.606,4.43,1.59,-4.77,6.70
2.616,3.01,1.95,-5.43,6.51
2.626,1.67,1.80,-5.88,6.37
2.636,0.67,1.58,-4.87,5.17
2.646,0.23,1.10,-2.60,2.83
2.656,0.15,0.29,-0.53,0.62
2.666,0.50,-0.59,0.80,1.11
2.676,0.77,-1.57,1.15,2.10
2.686,0.56,-2.94,1.41,3.31
2.696,0.39,-4.39,2.95,5.30
2.706,1.38,-5.07,2.42,5.79
2.716,2.15,-5.09,1.65,5.76
2.726,2.23,-3.60,0.56,4.27
2.736,1.54,0.73,-1.22,2.10
2.746,0.06,4.47,-1.18,4.62
2.756,-1.57,6.09,-0.27,6.30
2.766,-2.57,6.48,-0.30,6.98
2.776,-2.66,5.94,-0.74,6.55
2.786,-2.14,4.19,-0.07,4.70
2.796,-1.77,1.69,1.64,2.94
2.806,-1.88,-0.63,3.13,3.71
2.816,-1.90,-1.56,3.99,4.68
2.826,-1.54,-2.01,4.20,4.90
2.836,-1.02,-2.34,4.38,5.07
2.846,-0.49,-2.36,4.54,5.14
2.856,-0.17,-2.16,4.16,4.69
2.866,-0.29,-1.84,3.02,3.55
2.876,-0.79,-1.63,2.16,2.82
2.885,-1.51,-1.52,2.42,3.23
2.896,-2.25,-1.51,3.14,4.15
2.906,-2.74,-1.92,3.85,5.10
2.916,-2.91,-2.36,3.98,5.46
2.926,-2.81,-2.40,2.74,4.60
2.936,-2.45,-2.59,0.50,3.60
2.945,-2.06,-3.00,-0.68,3.70
2.956,-1.98,-3.08,-0.55,3.70
2.965,-2.05,-2.93,-0.80,3.66
2.976,-2.28,-2.97,-1.70,4.12
2.985,-2.82,-2.67,-2.27,4.50
2.995,-2.95,-2.08,-2.92,4.64
3.005,-1.67,-0.02,-5.87,6.10
3.015,0.19,3.51,-7.60,8.37
3.025,1.09,6.04,-3.98,7.31
3.035,1.73,7.45,-0.02,7.65
3.045,2.59,8.17,0.27,8.57
3.055,1.58,8.53,1.02,8.73
3.065,-0.41,8.46,2.07,8.72
3.075,-0.90,7.66,-0.71,7.74
3.085,-0.51,6.46,-1.40,6.63
3.095,-0.33,5.08,1.23,5.24
3.105,-0.53,3.49,2.13,4.12
3.115,-1.19,2.18,2.00,3.19
3.125,-2.15,1.16,1.51,2.87
3.135,-2.86,0.35,0.83,3.00
3.145,-3.09,-0.31,0.39,3.13
3.155,-2.85,-1.07,0.01,3.05
3.165,-1.88,-2.07,-0.67,2.87
3.175,-0.81,-2.88,-0.18,2.99
3.185,0.22,-2.66,0.60,2.74
3.195,0.88,-1.69,1.49,2.42
3.205,1.46,0.14,0.39,1.52
3.215,1.40,1.89,-1.18,2.63
3.225,0.46,2.64,-0.33,2.70
3.235,0.04,2.05,1.58,2.59
3.245,0.21,-0.22,2.38,2.40
3.255,0.73,-3.03,1.58,3.49
3.265,1.24,-4.54,0.09,4.71
3.275,1.39,-4.80,0.19,5.00
3.285,1.51,-4.39,1.39,4.85
3.295,1.70,-3.88,1.43,4.47
3.305,1.84,-3.60,0.52,4.07
3.315,1.72,-3.45,-0.04,3.86
3.325,1.35,-3.20,-0.68,3.54
3.335,0.98,-3.38,-0.57,3.57
3.345,0.83,-3.97,-0.02,4.06
3.355,0.62,-4.54,0.18,4.58
3.365,0.36,-4.98,-0.68,5.04
3.375,0.34,-5.12,-2.02,5.51
3.385,1.08,-4.64,-2.32,5.30
3.395,2.12,-4.03,-2.33,5.11
3.405,2.69,-3.72,-2.70,5.33
3.415,2.58,-3.07,-2.67,4.82
3.425,2.16,-2.28,-2.35,3.92
3.435,1.86,-1.17,-2.34,3.21
3.445,1.55,0.62,-2.51,3.02
3.455,1.10,2.96,-2.70,4.16
3.465,0.55,5.47,-3.07,6.29
3.475,0.01,7.41,-3.61,8.24
3.484,-0.59,8.50,-4.26,9.52
3.495,-0.86,8.82,-4.55,9.96
3.505,-0.19,7.91,-4.21,8.96
3.515,1.31,6.28,-3.57,7.35
3.525,3.33,5.54,-2.35,6.88
3.535,5.67,5.52,-1.04,7.98
3.545,7.93,5.56,-0.83,9.72
3.555,9.07,4.24,-2.98,10.45
3.564,8.30,1.40,-6.45,10.60
3.575,5.99,-1.21,-7.21,9.45
3.585,3.23,-2.36,-6.71,7.81
3.595,0.72,-2.17,-5.66,6.10
3.605,-1.11,-1.64,-3.81,4.29
3.615,-2.00,-2.03,-1.93,3.44
3.624,-2.05,-3.29,-0.28,3.89
3.634,-2.13,-4.40,0.98,4.98
3.644,-2.25,-4.49,1.65,5.28
3.655,-2.37,-3.14,1.72,4.29
3.664,-1.87,-0.61,1.28,2.34
3.674,-0.70,1.18,0.31,1.41
3.684,0.59,2.70,-0.60,2.82
3.694,1.29,4.66,-0.79,4.90
3.704,1.35,6.26,-0.38,6.42
3.714,1.18,6.35,1.34,6.60
3.724,0.98,5.03,2.65,5.77
3.734,0.61,3.21,3.21,4.58
3.744,-0.01,1.45,3.89,4.15
3.754,-1.45,-0.82,4.23,4.55
3.764,-2.97,-2.40,4.09,5.59
3.774,-3.88,-2.67,3.81,6.06
3.784,-3.88,-2.61,3.54,5.86
3.794,-3.22,-2.72,3.44,5.44
3.804,-2.41,-2.67,3.84,5.26
3.814,-1.89,-2.31,4.12,5.09
3.824,-1.73,-1.88,3.90,4.66
3.834,-1.90,-1.64,3.54,4.34
3.844,-2.13,-1.60,3.28,4.23
3.854,-2.28,-1.57,3.52,4.47
3.864,-2.59,-1.40,3.72,4.75
3.874,-3.05,-1.19,3.31,4.66
3.884,-3.33,-1.35,2.70,4.49
3.894,-3.02,-1.83,1.73,3.94
3.904,-2.40,-2.34,0.68,3.42
3.914,-2.09,-2.55,0.46,3.33
3.924,-2.07,-2.48,0.16,3.23
3.934,-1.86,-2.32,-0.92,3.12
3.944,-1.34,-1.70,-2.05,2.98
3.954,-0.75,-0.93,-2.90,3.14
3.964,-0.09,-0.17,-3.82,3.82
3.974,0.68,0.78,-4.96,5.06
3.984,1.37,2.20,-5.86,6.41
3.994,1.82,3.61,-5.33,6.69
4.004,1.75,4.81,-3.77,6.35
4.014,1.10,5.93,-2.75,6.62
4.024,0.61,6.83,-2.31,7.24
4.034,0.51,7.48,-1.27,7.60
4.044,1.17,7.62,0.81,7.76
4.054,2.24,6.34,0.76,6.76
4.064,2.55,4.10,0.96,4.92
4.074,1.52,2.48,2.63,3.92
4.084,-0.15,1.42,2.21,2.63
4.094,-1.42,0.29,1.34,1.98
4.104,-2.19,-0.59,1.23,2.58
4.114,-2.46,-1.07,0.96,2.84
4.124,-2.49,-1.24,0.74,2.88
4.134,-2.26,-1.31,0.65,2.69
4.144,-1.73,-1.30,0.15,2.17
4.154,-0.84,-1.20,0.69,1.62
4.164,0.13,-1.27,1.65,2.09
4.174,0.65,-0.99,2.05,2.37
4.184,1.07,0.22,1.50,1.86
4.194,1.27,2.30,0.55,2.68
4.204,0.74,3.47,0.21,3.55
4.214,-0.66,3.34,1.61,3.76
4.224,-1.66,2.06,2.36,3.55
4.234,-1.96,0.04,1.84,2.69
4.244,-1.64,-1.78,0.72,2.52
4.254,-0.79,-2.74,-0.15,2.86
4.264,0.14,-2.95,0.22,2.96
4.274,0.80,-2.56,0.88,2.83
4.284,1.23,-2.26,0.20,2.58
4.294,1.37,-2.54,-0.57,2.94
4.303,1.21,-3.31,-0.64,3.58
4.313,1.02,-4.22,-0.34,4.36
4.324,0.95,-4.83,-0.52,4.95
4.334,0.92,-5.03,-1.42,5.30
4.343,1.14,-5.18,-2.44,5.84
4.353,1.52,-5.33,-2.83,6.22
4.363,2.02,-5.23,-2.60,6.19
4.374,2.69,-4.82,-2.31,5.99
4.383,3.38,-4.31,-1.68,5.73
4.393,3.82,-3.64,-1.12,5.39
4.403,3.63,-2.88,-1.40,4.84
4.414,2.84,-1.91,-1.91,3.92
4.423,1.80,-0.35,-2.09,2.78
4.433,0.84,1.52,-2.10,2.72
4.443,0.01,2.94,-2.22,3.69
4.453,-0.41,3.71,-2.57,4.53
4.463,-0.33,4.27,-2.67,5.05
4.473,-0.11,4.76,-2.39,5.33
4.483,-0.14,5.11,-2.21,5.57
4.493,-0.34,5.03,-2.66,5.70
4.503,0.30,4.77,-2.62,5.45
4.513,1.61,4.53,-1.79,5.13
4.523,3.06,4.99,-1.32,6.00
4.533,4.44,5.64,-1.59,7.35
4.543,5.77,5.14,-2.79,8.21
4.553,6.35,3.24,-4.32,8.34
4.563,5.94,0.93,-5.63,8.23
4.573,5.09,-1.41,-6.21,8.15
4.583,4.33,-2.40,-5.88,7.68
4.593,3.36,-2.06,-4.53,6.01
4.603,1.85,-1.22,-2.93,3.67
4.613,0.12,0.02,-1.62,1.63
4.623,-0.71,0.74,-0.91,1.37
4.633,-0.65,0.14,-0.41,0.78
4.643,-0.15,-0.55,-1.31,1.42
4.653,-0.04,-0.57,-1.36,1.48
4.663,0.35,0.28,-0.18,0.49
4.673,1.41,0.96,0.52,1.78
4.683,2.21,1.33,1.32,2.90
4.693,2.64,2.39,1.15,3.74
4.703,2.06,4.17,1.28,4.83
4.713,0.64,5.40,2.48,5.98
4.723,-0.77,5.56,3.26,6.49
4.733,-1.56,4.64,2.99,5.73
4.743,-2.24,2.87,3.24,4.88
4.753,-3.16,0.72,3.67,4.89
4.763,-3.91,-1.07,3.50,5.36
4.773,-4.05,-1.64,3.49,5.60
4.783,-3.32,-1.83,3.36,5.06
4.793,-2.11,-2.34,3.43,4.65
4.803,-0.94,-2.66,4.06,4.94
4.813,-0.12,-2.65,4.40,5.14
4.823,0.06,-2.19,4.16,4.70
4.833,-0.28,-1.46,4.09,4.35
4.843,-0.89,-0.99,4.49,4.68
4.853,-1.48,-1.07,4.96,5.29
4.863,-1.93,-1.87,4.89,5.58
4.873,-2.30,-2.94,4.01,5.48
4.882,-2.44,-3.70,2.60,5.13
4.893,-2.16,-3.93,1.48,4.72
4.903,-1.61,-3.80,0.82,4.21
4.913,-1.13,-3.69,0.37,3.87
4.923,-0.94,-3.77,-0.53,3.93
4.933,-1.06,-3.68,-1.30,4.04
4.943,-1.26,-3.10,-1.37,3.61
4.953,-1.12,-2.40,-1.60,3.09
4.963,-0.59,-1.57,-2.28,2.83
4.973,0.42,-0.38,-3.02,3.07
4.982,1.54,1.50,-4.05,4.58
4.993,2.26,3.05,-4.24,5.69
5.002,2.64,4.40,-4.04,6.53
5.013,2.80,5.68,-3.48,7.22
5.022,2.76,6.21,-3.39,7.59
5.033,2.16,6.72,-1.80,7.29
5.042,1.47,7.62,0.99,7.83
5.053,1.87,8.15,2.08,8.61
5.062,2.37,7.48,2.04,8.11
5.072,1.37,5.13,1.30,5.47
5.082,-0.70,3.02,0.63,3.16
5.092,-2.74,1.74,1.02,3.40
5.102,-4.19,0.86,1.03,4.40
5.112,-4.46,0.38,0.16,4.47
5.122,-4.01,0.48,-0.37,4.05
5.132,-3.60,0.65,-1.03,3.80
5.142,-2.65,0.80,-0.42,2.80
5.152,-1.59,0.78,0.80,1.95
5.162,-0.48,0.44,2.05,2.15
5.172,0.07,0.15,0.99,1.01
5.182,0.19,0.10,0.15,0.26
5.192,0.02,0.29,-0.07,0.30
5.202,-0.25,0.32,-0.02,0.41
5.212,-0.10,0.10,0.92,0.93
5.222,0.17,-0.47,1.57,1.65
5.232,0.50,-1.71,1.54,2.36
5.242,0.81,-2.93,1.03,3.20
5.252,0.94,-3.53,0.44,3.68
5.262,0.91,-3.55,0.38,3.69
5.272,0.86,-3.42,0.74,3.60
5.282,0.91,-3.34,0.83,3.56
5.292,1.05,-3.49,0.94,3.76
5.302,1.10,-3.74,0.99,4.02
5.312,0.80,-4.05,0.18,4.13
5.322,0.37,-4.24,-0.47,4.28
5.332,0.33,-3.97,-0.43,4.01
5.342,0.45,-3.66,-0.73,3.76
5.352,0.48,-3.52,-1.36,3.80
5.362,0.76,-3.27,-1.70,3.76
5.372,1.28,-3.13,-2.00,3.93
5.382,1.82,-3.01,-2.00,4.05
5.392,2.42,-2.53,-2.15,4.10
5.402,2.72,-1.74,-2.99,4.40
5.412,2.65,-0.94,-3.45,4.45
5.422,2.69,0.07,-3.11,4.12
5.432,2.87,1.41,-2.46,4.03
5.442,2.75,3.00,-2.04,4.55
5.452,2.11,4.38,-2.07,5.29
5.462,1.19,5.08,-2.01,5.59
5.472,0.67,5.50,-1.55,5.75
5.482,1.24,5.94,-0.81,6.12
5.492,2.88,5.67,-1.08,6.45
5.502,4.88,4.15,-3.51,7.30
5.512,6.11,2.39,-5.94,8.85
5.522,5.93,1.01,-6.72,9.02
5.532,4.89,-0.31,-6.66,8.27
5.542,3.80,-1.06,-6.55,7.65
5.552,2.61,-1.05,-5.90,6.54
5.561,1.10,0.04,-4.72,4.84
5.572,-0.53,1.12,-3.67,3.87
5.581,-1.50,1.54,-2.60,3.37
5.592,-1.32,1.26,-1.73,2.52
5.602,-0.69,1.09,-1.79,2.20
5.612,-0.33,0.77,-2.28,2.43
5.622,-0.19,0.32,-1.78,1.81
5.632,0.34,0.28,-0.20,0.48
5.642,1.01,0.49,1.33,1.74
5.652,1.65,0.84,2.03,2.75
5.662,1.60,1.91,2.04,3.22
5.672,0.88,3.86,1.67,4.30
5.681,-0.04,4.72,1.52,4.96
5.691,-0.72,4.60,1.61,4.93
5.701,-1.03,3.79,1.50,4.20
5.712,-1.49,2.34,2.04,3.44
5.721,-2.45,0.38,2.84,3.78
5.731,-3.42,-0.93,3.43,4.93
5.741,-3.63,-1.15,3.59,5.23
5.751,-3.03,-1.36,3.63,4.92
5.761,-2.02,-2.08,4.13,5.05
5.771,-1.11,-2.59,4.85,5.61
5.781,-0.61,-2.53,4.88,5.52
5.791,-0.56,-2.08,4.29,4.80
5.801,-0.87,-1.61,3.97,4.37
5.811,-1.16,-1.23,3.65,4.02
5.821,-1.24,-1.12,3.48,3.87
5.831,-1.34,-1.43,3.36,3.90
5.841,-1.57,-1.97,2.78,3.75
5.851,-1.96,-2.26,1.70,3.44
5.861,-2.30,-2.50,0.71,3.47
5.871,-2.47,-2.99,0.40,3.90
5.881,-2.50,-3.57,0.59,4.39
5.891,-2.29,-4.17,0.58,4.79
5.901,-1.68,-4.51,-0.21,4.82
5.911,-1.02,-4.25,-0.91,4.47
5.921,-0.60,-3.32,-1.30,3.61
5.931,-0.45,-1.92,-1.81,2.68
5.941,-0.57,-0.66,-2.11,2.29
5.951,-0.50,0.61,-2.78,2.89
5.961,-0.04,2.51,-4.54,5.19
5.971,0.38,4.69,-5.38,7.15
5.981,0.72,6.55,-3.58,7.50
5.991,0.83,7.52,-1.39,7.69
6.001,0.47,7.40,-1.11,7.50
6.011,-0.74,6.46,-0.35,6.51
6.021,-1.46,5.51,0.38,5.71
6.031,-0.35,5.11,-0.20,5.13
6.041,1.28,5.07,0.01,5.23
6.051,2.25,4.73,1.26,5.39
6.061,2.07,3.23,1.55,4.14
6.071,0.52,1.88,1.73,2.61
6.081,-1.55,1.03,1.63,2.47
6.091,-3.21,0.28,1.24,3.45
6.101,-3.76,-0.33,0.80,3.86
6.111,-3.47,-0.66,0.60,3.59
6.121,-2.52,-0.64,0.26,2.62
6.131,-1.21,-0.79,0.78,1.65
6.141,-0.26,-1.22,0.67,1.42
6.151,0.28,-1.66,0.53,1.76
6.161,0.40,-1.54,-0.04,1.59
6.171,-0.21,-1.07,0.41,1.17
6.181,-0.88,-0.00,0.69,1.12
6.191,-1.33,1.21,0.07,1.80
6.201,-1.26,1.81,-0.39,2.24
6.211,-0.94,1.40,-0.26,1.70
6.221,-0.55,0.08,0.22,0.60
6.231,-0.02,-1.24,0.44,1.32
6.241,0.60,-2.02,-0.00,2.11
6.251,1.25,-2.26,-0.14,2.58
6.261,1.81,-2.35,0.42,3.00
6.271,2.05,-2.66,1.01,3.51
6.281,1.85,-3.34,1.13,3.98
6.291,1.37,-4.02,0.99,4.36
6.301,0.86,-4.36,0.80,4.51
6.311,0.54,-4.38,0.56,4.45
6.321,0.51,-4.49,0.84,4.60
6.331,0.55,-4.82,1.71,5.14
6.341,0.38,-5.17,2.10,5.59
6.351,-0.08,-5.43,1.03,5.53
6.361,-0.75,-5.33,-1.21,5.51
6.371,-1.08,-4.76,-2.58,5.52
6.380,-0.61,-4.08,-3.84,5.64
6.391,0.25,-3.53,-4.74,5.91
6.400,1.06,-2.80,-4.73,5.60
6.411,1.66,-1.40,-4.49,4.98
6.420,2.48,1.02,-3.52,4.42
6.430,3.43,3.64,-1.57,5.25
6.440,3.73,5.84,-0.26,6.93
6.450,3.35,7.91,-0.28,8.59
6.460,2.65,9.28,-1.89,9.83
6.470,1.83,9.83,-3.90,10.73
6.480,1.61,9.70,-5.13,11.09
6.491,1.98,8.23,-5.04,9.85
6.500,2.20,6.64,-4.21,8.16
6.510,2.09,6.10,-4.02,7.60
6.520,2.15,4.92,-4.44,6.96
6.530,2.62,2.15,-4.82,5.89
6.540,3.27,-0.50,-4.40,5.51
6.550,4.11,-0.76,-3.16,5.24
6.560,4.78,-0.48,-2.45,5.40
6.570,4.58,-1.69,-2.43,5.46
6.580,3.46,-3.39,-2.18,5.31
6.590,2.06,-4.28,-1.37,4.94
6.600,0.81,-4.28,-0.49,4.39
6.610,-0.10,-3.77,0.07,3.77
6.620,-0.45,-3.59,0.01,3.62
6.630,-0.50,-4.07,-0.36,4.11
6.640,-0.47,-4.20,-0.85,4.31
6.650,-0.47,-3.56,-1.31,3.82
6.660,-0.24,-1.99,-1.52,2.51
6.670,-0.07,-0.11,-1.05,1.06
6.680,0.12,1.96,-0.54,2.03
6.690,0.47,3.91,-0.38,3.96
6.700,0.36,4.90,0.57,4.95
6.710,-0.21,5.02,1.84,5.35
6.720,-1.02,4.17,2.95,5.21
6.730,-1.64,3.14,4.02,5.36
6.740,-1.77,1.67,4.24,4.89
6.750,-1.86,-0.15,4.42,4.79
6.760,-2.07,-1.70,3.76,4.61
6.770,-2.37,-2.22,2.60,4.16
6.780,-2.11,-1.69,2.40,3.61
6.790,-1.24,-1.33,2.53,3.11
6.800,-0.08,-1.28,2.77,3.05
6.810,0.87,-1.31,3.11,3.49
6.820,1.06,-1.04,3.22,3.54
6.830,0.61,-0.49,3.07,3.16
6.840,-0.06,-0.04,3.05,3.05
6.850,-0.75,0.03,3.36,3.44
6.860,-1.44,-0.24,3.64,3.93
6.870,-2.05,-0.75,3.36,4.01
6.880,-2.62,-1.36,2.60,3.93
6.890,-3.21,-1.97,1.64,4.11
6.899,-3.80,-2.83,0.66,4.78
6.910,-4.26,-4.18,-0.03,5.97
6.920,-4.47,-5.06,-0.48,6.77
6.930,-4.26,-4.90,-0.60,6.52
6.940,-2.87,-4.18,-0.79,5.13
6.950,-0.94,-2.80,-0.96,3.11
6.960,0.74,-1.38,-1.48,2.15
6.970,2.00,-0.22,-2.14,2.94
6.980,2.50,0.70,-3.01,3.98
6.989,2.69,0.96,-4.19,5.07
6.999,3.16,1.57,-5.18,6.27
7.009,3.50,3.56,-4.72,6.87
7.019,2.84,5.36,-2.73,6.64
7.029,1.39,6.38,-2.16,6.88
7.039,0.79,6.26,-3.92,7.43
7.049,0.65,5.59,-3.68,6.72
7.059,0.35,5.02,-0.13,5.04
7.069,0.85,4.71,2.23,5.28
7.079,1.81,4.48,3.05,5.71
7.089,2.14,4.01,2.73,5.30
7.099,1.46,3.10,1.74,3.84
7.109,0.41,2.11,1.23,2.48
7.119,-0.70,1.38,1.09,1.89
7.129,-1.62,0.94,0.76,2.02
7.139,-2.25,0.63,0.47,2.38
7.149,-2.50,0.42,0.69,2.62
7.159,-2.37,0.35,0.73,2.50
7.170,-2.07,0.09,0.87,2.25
7.179,-1.40,-0.40,0.95,1.74
7.189,-1.02,-1.23,1.21,2.01
7.199,-0.66,-1.57,0.57,1.80
7.209,-0.70,-1.10,0.83,1.54
7.219,-1.03,0.15,1.34,1.70
7.229,-1.32,1.49,1.24,2.35
7.239,-1.47,2.11,1.20,2.84
7.249,-1.67,1.26,1.37,2.50
7.259,-1.50,-0.53,1.04,1.90
7.269,-0.81,-2.18,0.48,2.38
7.279,0.12,-3.11,0.25,3.12
7.289,0.99,-3.24,0.54,3.44
7.299,1.76,-3.06,0.85,3.64
7.309,2.30,-3.15,0.97,4.02
7.319,2.52,-3.49,0.98,4.41
7.329,2.30,-3.82,0.96,4.56
7.339,1.64,-3.99,0.92,4.41
7.349,0.86,-3.82,1.00,4.04
7.359,0.18,-3.34,0.58,3.40
7.369,-0.22,-2.66,-0.58,2.73
7.379,-0.20,-1.97,-1.59,2.54
7.389,-0.04,-1.65,-1.98,2.57
7.399,-0.09,-1.81,-2.06,2.74
7.409,0.02,-1.99,-2.05,2.86
7.419,0.08,-1.86,-2.48,3.10
7.429,0.09,-1.34,-3.13,3.41
7.439,0.40,-0.45,-3.39,3.44
7.449,1.04,0.84,-2.89,3.18
7.459,1.75,2.02,-2.43,3.61
7.469,1.94,2.74,-2.59,4.24
7.479,1.71,3.09,-3.29,4.83
7.489,1.50,3.34,-3.93,5.38
7.499,1.51,3.73,-3.88,5.58
7.509,2.07,4.39,-2.37,5.40
7.519,3.33,4.43,-0.47,5.56
7.529,5.31,3.19,-0.59,6.22
7.539,7.18,1.97,-2.04,7.72
7.549,7.69,1.47,-3.06,8.40
7.559,6.35,1.24,-3.54,7.38
7.569,4.11,0.48,-5.14,6.60
7.579,1.76,-0.19,-6.69,6.92
7.589,-0.28,-0.04,-6.56,6.57
7.598,-1.48,0.42,-4.95,5.19
7.609,-1.45,0.18,-2.98,3.32
7.619,-0.60,-0.74,-1.31,1.62
7.629,0.20,-1.77,0.09,1.78
7.639,0.54,-2.64,1.23,2.96
7.648,0.55,-2.80,1.69,3.31
7.659,0.52,-1.78,1.78,2.57
7.668,1.00,-0.05,1.40,1.72
7.678,1.53,1.43,1.49,2.57
7.689,1.89,2.42,1.25,3.32
7.698,2.01,3.56,-0.32,4.10
7.708,1.65,4.54,-0.78,4.90
7.718,0.71,4.95,0.99,5.10
7.728,-0.13,4.65,2.13,5.11
7.738,-0.40,3.53,2.51,4.35
7.748,-0.77,1.90,3.26,3.85
7.758,-2.05,-0.46,4.06,4.58
7.769,-3.67,-1.87,4.06,5.79
7.778,-4.44,-1.57,3.64,5.95
7.788,-3.93,-1.46,3.19,5.27
7.798,-2.41,-2.03,3.06,4.40
7.808,-0.82,-2.53,3.31,4.25
7.818,0.22,-2.68,3.31,4.27
7.828,0.71,-2.40,2.73,3.71
7.838,0.51,-1.84,2.04,2.80
7.848,-0.14,-1.15,1.69,2.05
7.858,-1.10,-0.77,2.19,2.57
7.868,-2.19,-1.04,3.07,3.91
7.878,-3.17,-1.93,3.31,4.97
7.888,-3.79,-2.83,2.69,5.44
7.898,-3.84,-3.54,1.77,5.52
7.908,-3.27,-3.83,1.13,5.16
7.918,-2.40,-3.96,1.09,4.76
7.928,-1.52,-3.91,0.72,4.26
7.938,-0.90,-3.60,-0.77,3.79
7.948,-0.56,-2.94,-2.37,3.82
7.958,-0.41,-1.94,-2.57,3.25
7.968,-0.23,-0.80,-2.13,2.29
7.978,0.05,-0.04,-1.84,1.85
7.988,0.69,0.39,-2.69,2.81
7.998,1.75,1.66,-4.82,5.39
8.008,2.77,3.59,-5.22,6.91
8.018,3.14,5.50,-3.88,7.43
8.028,3.05,7.30,-3.32,8.58
8.038,3.25,8.16,-3.96,9.64
8.048,2.91,7.72,-2.25,8.55
8.058,1.47,6.22,2.69,6.94
8.068,0.35,4.91,3.77,6.20
8.078,-0.15,3.69,1.46,3.97
8.088,-0.87,2.78,1.40,3.23
8.098,-1.59,2.11,1.77,3.18
8.108,-2.08,1.69,1.57,3.10
8.118,-2.47,1.41,1.46,3.20
8.128,-2.88,1.05,1.72,3.52
8.138,-2.93,0.43,1.45,3.30
8.148,-2.61,-0.33,0.79,2.75
8.158,-2.30,-1.09,-0.13,2.55
8.168,-1.92,-2.00,-0.14,2.78
8.178,-1.00,-2.27,0.37,2.51
8.188,-0.48,-2.45,1.21,2.78
8.198,0.27,-1.79,0.58,1.90
8.208,0.34,-0.68,0.99,1.25
8.218,0.25,1.28,1.28,1.82
8.228,0.11,3.26,0.19,3.26
8.238,0.04,4.34,-0.06,4.34
8.248,0.09,3.64,0.36,3.66
8.258,-0.13,1.15,0.58,1.30
8.268,-0.35,-0.97,0.79,1.30
8.278,-0.24,-2.07,0.65,2.18
8.288,-0.06,-2.43,0.28,2.45
8.297,0.05,-2.33,0.48,2.38
8.308,0.12,-2.26,0.87,2.42
8.317,-0.01,-2.50,0.82,2.63
8.328,-0.16,-2.70,0.52,2.75
8.338,-0.14,-2.51,0.23,2.52
8.348,-0.02,-2.17,-0.34,2.20
8.358,0.14,-1.89,-1.32,2.31
8.368,0.51,-1.45,-1.72,2.31
8.378,1.11,-1.00,-1.20,1.91
8.388,1.66,-0.97,-1.08,2.20
8.397,1.76,-1.39,-1.60,2.76
8.408,1.73,-1.74,-2.08,3.21
8.418,1.99,-1.77,-1.94,3.29
8.427,2.33,-1.80,-1.72,3.41
8.437,2.32,-2.08,-1.97,3.69
8.447,1.89,-2.26,-2.82,4.08
8.457,1.40,-2.15,-3.42,4.28
8.467,1.24,-1.65,-3.17,3.78
8.478,1.40,-0.86,-2.40,2.91
8.487,1.48,0.05,-1.71,2.27
8.497,1.45,0.98,-1.88,2.57
8.507,1.87,1.83,-2.11,3.36
8.517,2.75,2.39,-2.53,4.43
8.527,3.63,2.65,-3.41,5.64
8.537,3.91,2.29,-3.77,5.90
8.547,3.75,1.99,-4.10,5.90
8.557,3.36,1.73,-4.54,5.91
8.567,2.79,1.60,-4.50,5.53
8.577,2.04,1.75,-4.05,4.86
8.587,1.13,2.20,-3.61,4.37
8.597,0.07,2.53,-3.35,4.20
8.607,-0.90,2.48,-2.70,3.77
8.617,-1.21,2.30,-1.81,3.16
8.627,-0.60,1.59,-1.18,2.07
8.637,0.36,0.71,-1.12,1.38
8.647,0.83,-0.21,-1.50,1.73
8.657,0.68,-1.35,-1.32,2.01
8.667,0.72,-2.02,-0.43,2.19
8.677,1.53,-1.73,0.67,2.40
8.687,2.62,-0.97,2.09,3.49
8.697,3.12,0.67,2.44,4.02
8.707,2.84,3.06,0.30,4.18
8.717,1.70,5.14,0.82,5.48
8.727,0.54,5.64,2.07,6.03
8.737,0.13,4.76,1.76,5.08
8.747,-0.18,3.38,1.48,3.69
8.757,-1.29,1.24,2.35,2.95
8.767,-2.69,-0.63,3.11,4.16
8.777,-3.29,-1.16,2.76,4.45
8.787,-2.65,-1.54,2.02,3.67
8.797,-1.29,-2.23,2.33,3.47
8.807,-0.18,-2.89,3.53,4.57
8.817,0.51,-3.27,4.35,5.46
8.827,0.61,-2.97,4.06,5.07
8.837,0.05,-2.31,3.05,3.82
8.847,-0.63,-1.78,2.13,2.84
8.857,-1.17,-1.61,2.03,2.85
8.867,-1.72,-1.91,2.41,3.52
8.877,-2.59,-2.40,2.99,4.63
8.887,-3.63,-2.78,3.01,5.48
8.897,-4.22,-2.90,2.66,5.77
8.907,-4.23,-3.17,2.42,5.81
8.917,-3.83,-3.54,2.42,5.75
8.927,-3.35,-3.93,2.10,5.57
8.936,-3.05,-3.95,0.85,5.06
8.947,-2.75,-3.49,-0.89,4.53
8.957,-2.29,-3.18,-2.12,4.45
8.967,-1.68,-2.63,-2.09,3.76
8.976,-0.86,-1.35,-2.00,2.56
8.987,0.14,-0.22,-2.04,2.06
8.996,1.14,0.47,-2.18,2.51
9.006,2.14,1.06,-2.92,3.77
9.016,3.17,2.44,-3.80,5.52
9.027,4.06,4.39,-3.39,6.87
9.036,4.35,6.38,-2.29,8.05
9.046,3.89,7.60,-3.54,9.24
9.057,3.68,7.72,-5.38,10.10
9.067,3.27,7.30,-2.07,8.27
9.076,2.54,6.18,3.68,7.63
9.086,2.15,4.46,4.37,6.60
9.096,1.30,3.20,2.74,4.41
9.106,-0.29,2.22,1.98,2.99
9.116,-1.92,1.46,1.52,2.85
9.127,-3.04,1.04,1.61,3.59
9.136,-3.47,0.94,1.48,3.89
9.146,-3.57,0.82,1.37,3.91
9.156,-3.52,0.62,1.35,3.82
9.166,-3.28,0.66,1.05,3.51
9.176,-2.98,0.84,0.36,3.12
9.186,-2.63,0.94,-0.27,2.80
9.196,-1.67,0.44,0.79,1.90
9.206,-0.81,-0.11,1.77,1.95
9.216,-0.10,0.12,0.55,0.57
9.226,-0.07,1.13,0.48,1.23
9.236,-0.35,2.64,0.49,2.71
9.246,-0.47,3.98,0.30,4.01
9.256,-0.30,4.10,0.54,4.14
9.266,-0.06,2.76,1.13,2.99
9.276,-0.12,0.48,1.15,1.25
9.286,-0.61,-1.49,0.47,1.67
9.296,-1.03,-2.59,-0.18,2.80
9.306,-1.02,-2.90,-0.14,3.08
9.316,-0.40,-2.68,0.72,2.80
9.326,0.52,-2.57,0.99,2.80
9.336,1.02,-2.98,0.23,3.16
9.346,0.97,-3.56,-0.42,3.71
9.356,0.71,-3.72,-0.09,3.79
9.366,0.64,-3.66,0.19,3.72
9.376,0.36,-3.99,-0.38,4.03
9.386,-0.16,-4.23,-1.12,4.38
9.396,-0.21,-4.30,-1.55,4.58
9.406,0.55,-4.17,-1.82,4.58
9.416,1.59,-3.76,-2.22,4.64
9.426,2.21,-3.43,-2.99,5.06
9.436,2.08,-3.41,-3.52,5.32
9.446,2.13,-2.82,-3.28,4.82
9.456,2.74,-1.65,-2.56,4.10
9.466,3.12,-0.58,-2.45,4.01
9.476,2.74,0.32,-2.86,3.98
9.486,2.00,1.10,-3.05,3.81
9.496,1.28,1.81,-2.85,3.61
9.506,0.57,2.60,-2.45,3.62
9.516,0.11,3.39,-1.94,3.91
9.526,0.30,3.86,-1.20,4.05
9.536,1.50,3.91,-1.03,4.31
9.546,3.30,3.56,-1.71,5.15
9.556,4.48,2.75,-2.43,5.79
9.566,4.56,2.03,-3.61,6.16
9.576,3.36,1.41,-4.39,5.71
9.586,1.61,1.32,-5.26,5.66
9.595,0.01,1.58,-5.76,5.97
9.606,-0.93,1.72,-5.51,5.85
9.615,-0.97,1.21,-4.43,4.69
9.626,-0.41,0.42,-2.76,2.82
9.636,0.44,-0.19,-1.19,1.28
9.646,1.45,-1.22,-0.55,1.97
9.656,2.00,-2.41,-0.48,3.17
9.666,1.86,-3.41,-0.41,3.91
9.676,1.38,-3.51,-0.66,3.83
9.685,1.59,-2.55,-0.58,3.06
9.696,1.94,-1.15,0.60,2.33
9.705,1.79,0.40,0.93,2.06
9.715,1.47,3.18,-0.80,3.59
9.725,0.79,5.92,-1.52,6.16
9.735,-0.08,7.12,-0.52,7.13
9.745,-0.46,6.61,-0.34,6.63
9.756,-0.95,5.50,0.38,5.60
9.765,-2.14,3.84,2.33,4.97
9.775,-3.51,1.91,3.51,5.32
9.785,-3.87,0.95,2.78,4.86
9.795,-3.01,0.14,1.90,3.56
9.806,-1.46,-0.63,2.10,2.63
9.815,0.16,-1.33,3.06,3.34
9.825,1.38,-1.93,4.12,4.76
9.835,1.87,-2.06,4.32,5.14
9.845,1.40,-1.80,3.45,4.13
9.855,0.19,-1.51,2.44,2.88
9.865,-1.22,-1.37,2.40,3.02
9.875,-2.53,-1.65,3.05,4.29
9.885,-3.74,-2.21,3.88,5.82
9.895,-4.70,-2.99,4.11,6.92
9.905,-5.02,-3.65,3.50,7.13
9.915,-4.62,-4.15,2.39,6.66
9.925,-3.81,-4.39,1.37,5.96
9.935,-3.18,-4.35,0.85,5.46
9.945,-3.02,-4.38,0.69,5.36
9.955,-3.10,-4.26,0.21,5.27
9.965,-3.05,-3.78,-0.43,4.87
9.975,-2.69,-2.84,-1.05,4.05
9.985,-2.02,-1.82,-1.61,3.16
9.995,-1.29,-1.30,-2.24,2.89
10.005,-0.74,-0.84,-2.27,2.54
10.015,-0.09,0.57,-2.35,2.42
10.025,0.95,3.13,-3.21,4.58
10.035,2.38,6.04,-5.54,8.54
10.045,3.83,7.85,-8.25,12.02
10.055,5.06,9.94,-8.18,13.83
10.065,6.12,11.83,-1.57,13.41
10.075,6.74,9.84,8.07,14.40
10.085,4.83,4.13,5.95,8.70
10.095,1.55,1.98,1.45,2.91
10.105,-1.65,0.78,0.65,1.94
10.115,-3.25,0.03,1.35,3.52
10.125,-3.31,-0.56,1.34,3.61
10.135,-2.92,-0.56,0.51,3.02
10.145,-2.84,-0.02,0.17,2.85
10.155,-3.01,0.20,0.81,3.12
10.165,-3.14,0.10,1.38,3.43
10.175,-2.81,0.27,0.89,2.96
10.185,-2.44,0.45,-0.20,2.49
10.195,-1.89,-0.03,-0.03,1.89
10.205,-0.77,-0.71,0.90,1.38
10.215,0.01,0.04,0.67,0.67
10.225,0.56,1.93,0.02,2.01
10.235,0.69,4.23,-0.22,4.29
10.245,0.28,5.04,0.43,5.07
10.255,-0.35,3.36,1.18,3.57
10.265,-0.99,0.79,0.95,1.59
10.275,-1.30,-1.06,0.05,1.68
10.285,-1.16,-2.30,-0.39,2.61
10.294,-0.80,-3.00,0.17,3.11
10.305,-0.18,-3.08,1.07,3.27
10.315,0.44,-3.18,0.98,3.36
10.325,0.82,-3.46,0.38,3.57
10.335,1.04,-3.70,0.17,3.85
10.344,1.08,-3.93,-0.32,4.09
10.355,0.91,-4.13,-0.87,4.32
10.365,0.81,-4.22,-0.95,4.41
10.375,0.85,-4.13,-1.02,4.34
10.385,0.98,-3.94,-1.06,4.19
10.395,1.40,-3.63,-0.84,3.98
10.405,2.04,-3.19,-0.63,3.84
10.415,2.44,-2.71,-1.14,3.82
10.425,2.41,-2.41,-2.16,4.04
10.435,2.40,-2.08,-2.15,3.83
10.444,2.16,-1.54,-1.86,3.24
10.454,1.32,-1.05,-1.69,2.39
10.464,0.11,-0.53,-1.92,2.00
10.474,-0.99,0.00,-2.19,2.41
10.484,-1.70,0.76,-2.49,3.11
10.494,-1.98,1.47,-2.71,3.66
10.504,-1.93,2.11,-2.24,3.63
10.514,-1.57,2.67,-1.50,3.44
10.524,-0.91,3.39,-0.69,3.58
10.534,0.11,4.26,0.03,4.26
10.544,1.64,5.21,0.07,5.46
10.554,3.46,6.13,-0.78,7.08
10.564,4.95,6.67,-1.09,8.38
10.574,6.06,6.32,-1.39,8.86
10.584,6.61,4.73,-2.43,8.48
10.594,6.12,1.70,-4.37,7.72
10.604,4.59,-1.05,-4.42,6.46
10.614,3.21,-2.31,-3.36,5.19
10.624,2.49,-2.63,-2.81,4.59
10.634,1.88,-2.38,-2.05,3.66
10.644,0.95,-1.94,-1.02,2.39
10.654,-0.06,-1.28,0.27,1.31
10.664,-0.67,-0.61,1.06,1.39
10.674,-0.75,-0.60,0.49,1.08
10.684,-0.70,-0.90,-0.23,1.16
10.694,-0.52,-1.17,-0.51,1.38
10.704,-0.35,-1.31,-0.32,1.39
10.714,-0.18,-0.95,0.11,0.98
10.724,0.28,-0.03,0.71,0.77
10.734,1.13,0.88,0.55,1.54
10.744,1.65,1.77,0.37,2.45
10.754,0.78,2.71,1.86,3.38
10.764,-0.59,3.36,3.44,4.85
10.774,-1.35,3.05,3.90,5.13
10.784,-1.61,2.14,3.69,4.56
10.794,-1.99,0.98,3.30,3.98
10.804,-2.45,-0.01,2.88,3.79
10.814,-2.69,-0.69,2.44,3.69
10.824,-2.47,-1.28,2.31,3.62
10.834,-1.91,-1.97,2.77,3.90
10.844,-1.14,-2.72,3.30,4.42
10.854,-0.61,-3.45,3.59,5.01
10.864,-0.56,-4.03,3.30,5.24
10.874,-0.93,-3.90,2.49,4.72
10.884,-1.33,-3.48,1.82,4.15
10.894,-1.40,-3.58,1.72,4.21
10.904,-1.36,-3.81,1.91,4.47
10.914,-1.38,-4.12,2.05,4.81
10.924,-1.50,-4.41,1.89,5.03
10.934,-1.71,-4.62,1.53,5.16
10.944,-1.91,-4.68,1.15,5.18
10.954,-1.94,-4.61,0.92,5.09
10.964,-1.81,-4.41,0.89,4.85
10.974,-1.51,-4.17,0.76,4.50
10.984,-1.01,-4.02,0.44,4.17
10.994,-0.33,-3.92,-0.25,3.94
11.004,0.48,-3.94,-1.42,4.22
11.014,1.28,-4.08,-2.79,5.11
11.024,2.03,-4.02,-3.79,5.89
11.034,2.71,-4.18,-4.56,6.76
11.044,3.28,-3.90,-4.60,6.86
11.054,3.97,-2.79,-4.86,6.87
11.063,4.95,-0.44,-5.39,7.33
11.073,5.92,2.62,-5.96,8.80
11.083,6.60,4.82,-5.56,9.88
11.094,7.64,5.06,-2.50,9.50
11.104,9.19,3.90,-2.53,10.30
11.113,10.11,2.72,-3.64,11.09
11.124,10.18,1.55,-0.15,10.30
11.133,9.23,0.92,7.93,12.20
11.143,6.31,2.75,11.03,13.00
11.153,2.99,3.83,7.84,9.22
11.163,-0.12,3.90,6.00,7.16
11.173,-2.74,5.40,6.28,8.72
11.183,-4.75,7.24,6.57,10.86
11.193,-6.17,8.82,5.23,11.97
11.204,-7.49,9.34,2.51,12.23
11.213,-8.81,8.07,0.33,11.95
11.223,-9.98,5.79,0.88,11.57
11.233,-10.28,3.75,1.20,11.01
11.243,-9.32,1.69,-0.18,9.47
11.253,-7.87,-0.17,-2.02,8.13
11.263,-5.64,-0.50,-3.56,6.69
11.273,-3.45,0.08,-4.52,5.69
11.283,-1.60,0.40,-4.93,5.19
11.293,-0.49,-0.31,-4.37,4.41
11.303,0.03,-1.82,-3.35,3.81
11.313,0.12,-3.36,-1.97,3.90
11.323,-0.26,-4.23,-1.08,4.37
11.333,-1.28,-4.15,-1.29,4.53
11.343,-2.25,-3.45,-2.00,4.58
11.353,-2.51,-2.65,-2.46,4.40
11.363,-2.50,-2.11,-3.49,4.79
11.373,-2.18,-2.22,-4.20,5.23
11.383,-1.39,-2.52,-5.00,5.77
11.393,-0.38,-2.60,-6.23,6.76
11.403,0.87,-2.73,-6.68,7.26
11.413,2.34,-2.74,-6.14,7.12
11.423,3.72,-2.62,-5.33,7.01
11.433,4.68,-2.72,-4.57,7.08
11.443,5.23,-3.08,-3.79,7.16
11.453,5.46,-3.42,-3.06,7.13
11.463,5.18,-3.36,-2.52,6.67
11.473,4.00,-2.62,-2.34,5.33
11.483,2.26,-1.52,-2.56,3.74
11.493,1.07,-0.85,-2.79,3.11
11.503,0.75,-0.60,-3.22,3.36
11.513,0.82,-0.56,-3.69,3.82
11.523,1.26,-0.62,-4.42,4.64
11.533,1.82,-0.80,-5.15,5.52
11.543,2.11,-1.08,-5.02,5.55
11.553,1.76,-1.79,-4.31,4.98
11.563,0.99,-2.58,-4.44,5.23
11.573,0.17,-2.89,-5.02,5.79
11.583,-0.37,-2.75,-5.62,6.27
11.593,-0.54,-2.94,-6.03,6.73
11.603,-0.46,-3.40,-5.98,6.90
11.613,0.08,-4.10,-5.70,7.02
11.623,1.18,-5.32,-5.02,7.41
11.633,2.67,-6.11,-4.40,7.99
11.643,3.86,-5.84,-4.11,8.12
11.652,3.02,-4.74,-4.96,7.49
11.663,1.16,-3.39,-6.00,6.99
11.673,1.16,-3.59,-5.35,6.55
11.683,1.80,-4.59,-3.86,6.26
11.693,2.22,-5.19,-2.35,6.11
11.703,2.65,-5.10,-0.82,5.80
11.713,2.97,-4.25,0.68,5.23
11.723,3.07,-2.65,1.92,4.49
11.733,3.20,-0.29,0.91,3.34
11.743,3.53,2.93,-1.97,4.99
11.752,4.27,7.83,-4.79,10.12
11.763,5.50,15.41,-4.08,16.86
11.773,9.17,22.15,-0.62,23.98
11.784,12.89,18.13,1.82,22.32
11.793,11.45,11.24,0.80,16.06
11.802,8.12,8.31,0.65,11.64
11.812,5.54,6.64,1.86,8.84
11.822,3.03,4.34,3.53,6.37
11.832,1.26,1.44,4.83,5.19
11.842,0.26,-1.29,5.20,5.36
11.852,0.18,-3.07,4.09,5.11
11.862,-0.42,-4.55,2.77,5.34
11.872,-0.80,-4.87,1.35,5.11
11.882,-1.23,-3.78,0.10,3.98
11.892,-1.69,-1.66,-0.61,2.45
11.902,-1.64,0.22,0.17,1.67
11.912,-0.74,1.05,1.17,1.74
11.922,0.47,0.87,1.49,1.79
11.932,1.39,0.10,1.32,1.92
11.942,1.71,-0.73,0.97,2.09
11.952,1.39,-1.12,1.25,2.18
11.962,0.71,-1.01,2.22,2.54
11.972,-0.10,-0.68,3.02,3.10
11.982,-0.83,-0.58,3.10,3.26
11.992,-1.35,-0.53,2.62,2.99
12.002,-1.71,-0.42,2.05,2.70
12.012,-2.15,-0.64,1.71,2.82
12.022,-2.55,-1.34,1.54,3.27
12.032,-2.75,-2.25,1.67,3.92
12.042,-2.57,-2.99,1.46,4.20
12.052,-2.08,-3.73,0.80,4.34
12.062,-1.49,-4.20,0.43,4.48
12.072,-0.83,-4.16,0.30,4.26
12.082,-0.26,-3.86,0.35,3.88
12.092,0.28,-3.16,0.09,3.18
12.102,1.06,-1.80,-0.48,2.15
12.112,2.06,-0.33,-1.05,2.34
12.122,3.37,1.20,-1.74,3.98
12.132,5.02,2.88,-2.82,6.44
12.142,6.04,4.97,-4.62,9.08
12.152,6.24,6.25,-6.19,10.78
12.162,6.42,7.79,-4.86,11.20
12.172,7.59,8.72,-2.96,11.94
12.182,5.88,7.85,-0.77,9.84
12.192,0.82,6.33,1.62,6.59
12.202,-2.85,5.12,-0.10,5.86
12.212,-3.59,5.33,-2.68,6.96
12.222,-2.47,6.30,-3.19,7.48
12.232,-1.25,7.00,-2.11,7.42
12.242,-0.68,5.16,1.24,5.36
12.252,-0.57,1.12,3.09,3.34
12.262,-1.22,-0.16,1.88,2.25
12.272,-2.21,-0.29,0.47,2.28
12.282,-2.73,-0.46,-0.01,2.77
12.292,-2.80,-0.48,-0.16,2.85
12.301,-2.66,-0.84,-0.30,2.80
12.312,-2.30,-1.42,-0.82,2.83
12.321,-2.03,-1.89,-0.80,2.89
12.331,-1.73,-1.90,-0.39,2.60
12.341,-1.01,-1.55,-0.39,1.89
12.352,-0.22,-1.10,-0.57,1.26
12.361,0.13,-0.80,0.58,1.00
12.372,0.53,-0.35,0.49,0.80
12.382,0.62,0.06,0.36,0.72
12.392,0.54,0.75,0.63,1.12
12.401,0.28,1.44,1.40,2.03
12.411,-0.19,1.73,2.37,2.94
12.422,-0.40,1.47,2.28,2.74
12.432,-0.90,0.66,1.49,1.86
12.442,-1.75,-0.20,0.86,1.96
12.451,-2.29,-0.82,0.05,2.43
12.461,-2.44,-1.50,-0.39,2.89
12.471,-2.31,-2.31,-0.20,3.27
12.481,-1.91,-3.05,-0.12,3.60
12.491,-1.23,-3.52,-0.15,3.73
12.501,-0.45,-3.61,-0.46,3.67
12.511,0.38,-3.52,-1.27,3.77
12.521,1.40,-3.24,-1.55,3.86
12.531,2.52,-2.98,-1.44,4.16
12.542,2.91,-3.27,-1.72,4.70
12.551,2.17,-3.76,-1.73,4.67
12.561,1.31,-4.10,-1.74,4.64
12.571,0.83,-4.00,-1.78,4.46
12.581,0.69,-3.60,-1.74,4.06
12.591,0.38,-3.34,-2.48,4.17
12.601,0.03,-3.12,-3.06,4.37
12.611,0.24,-2.70,-3.17,4.17
12.621,0.85,-2.06,-3.33,4.01
12.631,1.55,-1.09,-3.34,3.84
12.641,2.26,0.16,-2.82,3.62
12.651,2.80,1.31,-2.30,3.86
12.661,2.73,1.95,-2.23,4.03
12.671,2.19,2.32,-2.50,4.06
12.681,1.92,2.91,-2.38,4.23
12.691,2.57,3.59,-1.89,4.80
12.701,3.99,3.69,-1.23,5.57
12.711,5.71,3.29,-0.85,6.64
12.721,6.71,3.05,-0.46,7.38
12.731,6.36,2.72,-1.37,7.06
12.741,4.76,2.53,-2.16,5.80
12.751,2.69,2.12,-2.98,4.54
12.761,0.74,1.40,-4.17,4.46
12.771,-0.78,0.34,-4.78,4.86
12.781,-1.34,-0.81,-3.96,4.26
12.791,-1.31,-1.44,-2.10,2.86
12.801,-0.69,-1.41,-0.47,1.64
12.811,-0.30,-1.56,0.49,1.67
12.821,-0.30,-1.76,0.65,1.90
12.831,-0.29,-1.32,0.40,1.41
12.841,-0.15,-0.21,0.43,0.50
12.851,0.03,1.26,1.38,1.87
12.861,0.53,2.61,1.17,2.91
12.871,0.93,3.81,0.00,3.92
12.881,0.85,5.14,-0.17,5.21
12.891,0.27,5.86,0.54,5.89
12.901,-0.25,5.51,0.86,5.58
12.911,-0.45,4.20,1.46,4.47
12.921,-0.92,2.25,2.58,3.54
12.931,-2.10,0.44,3.34,3.97
12.941,-3.21,0.08,3.17,4.51
12.951,-3.36,0.41,2.68,4.31
12.961,-2.57,-0.12,2.50,3.59
12.971,-1.36,-1.03,2.94,3.40
12.981,-0.31,-1.80,3.69,4.12
12.991,0.06,-1.89,4.05,4.46
13.001,-0.33,-1.40,3.62,3.89
13.011,-1.24,-1.12,2.83,3.29
13.020,-2.25,-0.98,2.47,3.48
13.031,-2.96,-0.83,2.73,4.11
13.041,-3.38,-1.39,3.14,4.81
13.050,-3.67,-2.43,3.32,5.52
13.060,-3.92,-2.83,2.63,5.51
13.071,-4.09,-2.87,1.39,5.18
13.080,-4.05,-2.61,0.72,4.87
13.090,-3.54,-2.65,0.78,4.49
13.100,-2.55,-3.13,0.21,4.04
13.110,-2.19,-3.30,-1.33,4.17
13.120,-2.80,-3.45,-2.41,5.05
13.130,-3.45,-3.60,-3.46,6.07
13.140,-3.60,-2.91,-4.21,6.26
13.150,-3.27,-1.58,-2.44,4.38
13.160,-2.62,-0.23,-0.31,2.65
13.170,-1.37,1.86,-1.69,2.87
13.180,-0.39,4.87,-2.94,5.70
13.190,0.24,7.68,-2.36,8.04
13.200,2.10,9.62,-4.80,10.95
13.210,4.09,12.09,-6.60,14.37
13.221,4.92,13.07,-0.48,13.98
13.230,4.56,8.07,5.72,10.89
13.240,2.63,3.54,5.28,6.88
13.250,0.03,2.37,2.35,3.34
13.260,-2.46,0.95,0.92,2.79
13.270,-3.90,-0.49,1.23,4.12
13.280,-4.09,-1.36,0.96,4.41
13.290,-3.70,-1.09,0.13,3.86
13.300,-3.18,0.42,-0.25,3.21
13.310,-2.48,1.70,0.41,3.04
13.320,-1.77,2.04,0.92,2.85
13.330,-1.16,1.63,0.52,2.06
13.340,-0.44,0.54,0.53,0.87
13.350,-0.27,-0.54,0.78,0.99
13.360,0.07,-0.63,0.57,0.85
13.370,0.49,0.27,0.79,0.97
13.380,0.56,1.31,1.22,1.88
13.390,0.40,1.45,1.34,2.01
13.400,-0.11,-0.04,1.01,1.02
13.410,-0.43,-1.64,0.73,1.84
13.420,-0.40,-2.31,0.90,2.51
13.430,-0.16,-2.37,1.11,2.62
13.440,0.03,-2.20,0.98,2.41
13.450,-0.03,-2.18,0.19,2.18
13.460,-0.27,-2.27,-0.22,2.29
13.470,-0.30,-2.27,0.47,2.34
13.480,0.03,-2.24,1.25,2.56
13.490,0.09,-2.55,1.18,2.81
13.500,-0.25,-2.97,0.08,2.98
13.510,-0.73,-3.27,-0.92,3.47
13.520,-0.90,-3.15,-1.45,3.58
13.530,-0.43,-2.89,-1.32,3.21
13.540,0.44,-2.87,-1.47,3.25
13.550,0.87,-3.10,-1.89,3.73
13.560,1.20,-3.42,-2.07,4.18
13.570,1.56,-3.74,-2.53,4.78
13.580,1.58,-3.75,-2.68,4.87
13.590,1.28,-3.35,-2.69,4.48
13.600,1.11,-2.64,-2.24,3.63
13.610,1.22,-1.51,-1.86,2.69
13.620,1.14,-0.08,-2.11,2.40
13.630,0.66,1.57,-2.51,3.03
13.640,0.16,3.27,-2.65,4.21
13.650,-0.19,4.84,-2.25,5.34
13.660,-0.31,6.26,-1.57,6.47
13.670,0.08,7.15,-1.09,7.23
13.680,1.38,6.86,-1.23,7.11
13.690,3.15,6.10,-1.07,6.95
13.700,4.82,5.34,-1.07,7.27
13.710,6.18,4.27,-1.10,7.59
13.720,6.52,3.04,-1.43,7.34
13.730,5.54,1.73,-2.64,6.37
13.740,3.86,0.44,-3.94,5.54
13.749,2.01,-0.48,-4.63,5.07
13.760,0.48,-0.62,-4.57,4.64
13.769,-0.06,-0.53,-3.84,3.87
13.779,-0.15,-0.53,-2.58,2.64
13.789,0.04,-0.67,-1.14,1.32
13.799,0.17,-1.51,-0.44,1.58
13.809,-0.07,-2.45,0.14,2.45
13.819,-0.47,-2.43,0.48,2.52
13.829,-0.79,-1.23,0.59,1.57
13.839,-0.72,0.57,0.34,0.98
13.849,-0.38,2.01,0.40,2.08
13.859,0.12,2.96,0.37,2.99
13.869,0.65,4.08,-0.14,4.13
13.879,0.45,4.90,0.77,4.98
13.889,-0.47,4.97,2.27,5.48
13.899,-1.19,4.46,2.87,5.43
13.909,-1.49,3.46,3.11,4.89
13.919,-2.39,2.00,4.00,5.07
13.929,-3.79,0.92,4.22,5.75
13.939,-4.34,0.98,3.70,5.78
13.949,-3.59,0.77,3.34,4.97
13.959,-2.07,-0.20,3.08,3.71
13.969,-0.61,-1.27,3.31,3.60
13.979,0.38,-1.97,3.80,4.30
13.989,0.72,-2.06,3.58,4.19
13.999,0.40,-1.70,2.60,3.13
14.009,-0.49,-1.26,1.84,2.28
14.019,-1.52,-0.95,1.93,2.63
14.029,-2.54,-1.13,2.56,3.78
14.039,-3.69,-1.84,3.33,5.30
14.049,-4.73,-2.67,3.82,6.64
14.059,-5.15,-3.44,3.46,7.10
14.069,-4.89,-3.74,2.28,6.57
14.079,-4.16,-3.42,1.21,5.52
14.089,-3.46,-2.97,1.07,4.69
14.099,-2.81,-2.78,0.88,4.05
14.109,-2.20,-2.66,-0.15,3.45
14.119,-1.86,-2.56,-1.20,3.39
14.129,-1.57,-2.11,-1.65,3.11
14.139,-1.09,-1.28,-1.74,2.42
14.149,-0.33,-0.31,-2.57,2.61
14.159,0.65,0.50,-3.56,3.65
14.169,2.05,1.26,-4.70,5.28
14.179,3.90,3.46,-5.41,7.51
14.189,5.57,6.50,-4.09,9.49
14.199,6.61,9.07,-2.00,11.40
14.209,6.59,9.71,-3.36,12.21
14.219,4.45,8.05,-3.26,9.76
14.229,0.90,4.69,1.08,4.89
14.239,-1.42,2.42,2.94,4.06
14.249,-2.07,1.29,1.19,2.72
14.259,-2.65,1.03,0.78,2.95
14.269,-3.19,1.21,1.38,3.68
14.279,-3.24,1.37,1.67,3.89
14.288,-3.02,1.56,0.90,3.52
14.299,-2.90,1.74,0.42,3.41
14.309,-2.88,1.71,0.57,3.40
14.319,-2.84,1.39,0.49,3.20
14.329,-2.73,1.07,0.48,2.97
14.339,-2.39,0.64,0.06,2.47
14.349,-1.67,-0.41,0.18,1.73
14.359,-0.79,-1.22,0.77,1.65
14.369,-0.61,-1.92,1.01,2.26
14.379,-0.24,-2.29,0.83,2.45
14.389,-0.12,-1.87,0.44,1.92
14.399,-0.12,-0.81,0.50,0.96
14.408,0.05,0.51,0.63,0.81
14.418,0.56,1.42,0.56,1.62
14.428,0.72,1.87,0.39,2.04
14.438,0.42,1.35,0.16,1.42
14.448,-0.43,-0.29,0.21,0.56
14.458,-0.93,-1.60,-0.09,1.86
14.468,-0.93,-2.14,-0.12,2.33
14.478,-0.64,-2.11,0.64,2.30
14.488,-0.25,-1.84,1.36,2.30
14.498,-0.18,-1.77,1.13,2.11
14.508,-0.39,-1.75,0.37,1.83
14.518,-0.63,-1.65,-0.08,1.77
14.528,-0.68,-1.37,0.12,1.53
14.538,-0.53,-1.16,0.03,1.28
14.548,-0.38,-1.38,-0.36,1.47
14.558,-0.46,-2.07,-0.56,2.19
14.568,-0.35,-2.75,-0.79,2.88
14.578,0.17,-3.20,-1.54,3.56
14.588,1.00,-3.43,-2.07,4.13
14.598,2.21,-3.47,-1.87,4.52
14.608,3.29,-3.43,-1.26,4.91
14.618,3.63,-3.43,-0.64,5.04
14.628,3.09,-3.38,-0.77,4.64
14.638,2.00,-3.09,-1.40,3.94
14.648,1.16,-2.45,-1.81,3.26
14.658,1.00,-1.43,-2.07,2.70
14.668,1.23,-0.32,-2.12,2.47
14.678,1.56,0.82,-2.05,2.70
14.688,1.71,1.71,-2.09,3.20
14.698,1.57,2.39,-2.20,3.61
14.708,1.50,2.97,-2.45,4.13
14.718,1.55,3.03,-2.70,4.34
14.728,1.69,2.69,-2.68,4.15
14.738,1.76,2.72,-1.94,3.78
14.748,1.72,3.43,-1.17,4.01
14.758,1.63,4.72,-1.16,5.13
14.768,1.58,6.17,-2.47,6.84
14.778,1.18,6.77,-4.12,8.01
14.788,0.86,6.76,-4.56,8.20
14.798,0.87,6.07,-4.55,7.64
14.808,0.97,4.76,-4.63,6.71
14.818,0.80,3.11,-4.36,5.42
14.828,0.40,1.32,-3.51,3.77
14.838,0.34,-0.27,-2.65,2.69
14.848,0.59,-1.54,-1.80,2.44
14.858,0.80,-2.90,-1.07,3.19
14.868,0.78,-4.37,-1.03,4.55
14.878,0.42,-5.35,-0.70,5.41
14.888,0.18,-5.49,-0.13,5.50
14.898,-0.07,-4.97,0.92,5.06
14.908,-0.89,-2.63,1.33,3.08
14.918,-1.52,0.50,-0.06,1.60
14.928,-1.58,2.94,-0.99,3.48
14.938,-1.55,4.82,-0.34,5.07
14.948,-1.55,5.14,0.77,5.42
14.958,-1.68,4.64,1.33,5.11
14.968,-2.00,3.82,1.58,4.59
14.978,-2.74,2.83,2.00,4.42
14.988,-3.94,1.56,2.60,4.97
14.998,-5.14,0.41,3.10,6.02
15.008,-5.31,-0.31,3.32,6.27
15.018,-4.17,-1.04,3.56,5.58
15.028,-2.44,-1.81,3.67,4.76
15.038,-0.92,-2.37,3.62,4.42
15.048,0.08,-2.42,3.48,4.24
15.058,0.61,-1.82,3.06,3.62
15.068,0.55,-1.06,2.32,2.61
15.077,-0.19,-0.33,1.79,1.83
15.088,-1.10,0.48,1.67,2.06
15.098,-1.82,0.71,1.96,2.77
15.107,-2.46,0.15,2.91,3.81
15.118,-3.17,-0.48,3.56,4.79
15.127,-3.79,-1.23,3.20,5.11
15.138,-4.11,-1.99,2.16,5.05
15.148,-4.05,-2.57,0.75,4.85
15.158,-3.63,-2.71,-0.87,4.62
15.167,-3.00,-2.82,-1.87,4.52
15.177,-2.27,-2.45,-2.07,3.93
15.187,-1.67,-1.71,-2.13,3.21
15.198,-1.14,-0.91,-2.03,2.50
15.207,-0.48,-0.41,-2.26,2.34
15.217,0.34,0.03,-3.40,3.42
15.227,1.39,0.90,-3.91,4.25
15.237,2.61,2.75,-3.01,4.83
15.247,3.09,5.05,-1.84,6.20
15.257,2.64,7.10,-1.67,7.75
15.267,2.43,8.04,-3.43,9.07
15.277,1.85,8.22,-3.49,9.12
15.287,0.15,7.01,0.19,7.01
15.297,-0.82,4.20,1.79,4.64
15.307,-1.05,1.97,1.52,2.70
15.317,-1.39,1.20,1.74,2.53
15.327,-1.96,0.86,1.38,2.54
15.337,-2.54,0.38,0.80,2.69
15.347,-2.90,0.16,0.34,2.92
15.357,-3.02,0.31,0.16,3.04
15.367,-2.86,0.56,0.19,2.92
15.377,-2.59,0.61,0.21,2.67
15.387,-2.35,0.56,0.30,2.43
15.397,-1.94,0.36,-0.05,1.98
15.407,-1.35,-0.11,0.32,1.39
15.417,-0.75,-0.30,0.81,1.14
15.427,-0.36,-0.49,0.68,0.92
15.437,-0.13,-0.26,1.42,1.45
15.447,0.04,0.88,1.25,1.53
15.457,0.14,2.30,0.68,2.40
15.467,-0.01,3.15,0.01,3.15
15.477,-0.47,2.39,0.34,2.45
15.487,-1.11,0.87,1.37,1.96
15.497,-1.43,-0.38,1.31,1.97
15.507,-1.77,-1.35,0.68,2.33
15.517,-1.92,-1.88,0.49,2.74
15.527,-1.78,-1.87,0.59,2.65
15.537,-1.37,-1.71,0.35,2.22
15.547,-0.65,-1.81,0.61,2.01
15.557,0.13,-2.34,0.84,2.48
15.567,0.62,-3.21,0.20,3.28
15.577,0.53,-3.93,-0.80,4.04
15.587,0.03,-4.30,-1.20,4.46
15.597,-0.19,-4.35,-1.77,4.70
15.607,-0.01,-4.17,-1.57,4.45
15.617,0.39,-3.99,-1.37,4.24
15.627,0.70,-3.79,-1.65,4.19
15.637,0.94,-3.56,-1.97,4.18
15.647,1.20,-3.51,-2.17,4.30
15.657,1.31,-3.41,-2.06,4.19
15.666,1.08,-3.02,-2.14,3.85
15.677,0.56,-2.21,-2.51,3.39
15.686,0.32,-0.96,-2.73,2.91
15.697,0.42,0.71,-2.66,2.78
15.707,0.50,2.50,-2.34,3.46
15.717,0.47,3.99,-1.91,4.45
15.726,0.58,4.93,-1.86,5.30
15.737,0.95,5.34,-2.19,5.85
15.747,1.61,5.08,-2.27,5.79
15.756,2.28,4.49,-2.26,5.52
15.766,3.04,4.36,-2.54,5.89
15.776,3.63,4.48,-2.58,6.31
15.786,4.06,4.37,-2.40,6.43
15.797,4.34,3.06,-3.14,6.16
15.807,4.26,1.41,-3.91,5.95
15.816,3.79,0.21,-3.79,5.36
15.826,3.02,-0.78,-3.61,4.77
15.836,2.05,-1.28,-3.44,4.21
15.846,0.81,-1.28,-2.81,3.20
15.856,-0.40,-0.92,-1.47,1.78
15.866,-1.13,-0.50,-0.42,1.31
15.876,-1.29,-0.09,0.13,1.30
15.886,-1.14,-0.13,-0.15,1.16
15.896,-1.00,-0.59,-0.56,1.29
15.906,-0.82,-0.35,-0.58,1.07
15.916,-0.73,0.51,-0.16,0.91
15.926,-0.46,1.59,0.57,1.75
15.936,-0.10,2.39,1.29,2.71
15.946,0.23,2.84,1.48,3.21
15.956,0.25,3.34,1.31,3.59
15.966,-0.36,3.84,2.09,4.38
15.976,-1.15,3.92,3.09,5.12
15.986,-1.46,3.07,3.04,4.56
15.996,-1.47,1.54,3.07,3.74
16.006,-1.92,-0.05,3.70,4.17
16.016,-2.80,-1.17,3.33,4.51
16.026,-3.29,-1.23,2.79,4.49
16.036,-2.97,-1.14,2.52,4.06
16.046,-1.97,-1.65,2.30,3.45
16.056,-0.83,-2.00,2.60,3.39
16.066,-0.19,-1.89,3.11,3.64
16.076,-0.19,-1.62,3.05,3.46
16.086,-0.69,-1.21,2.45,2.81
16.096,-1.32,-0.76,1.86,2.40
16.106,-1.82,-0.37,1.84,2.61
16.116,-2.27,-0.44,2.45,3.37
16.126,-2.78,-0.59,3.23,4.30
16.136,-3.32,-0.63,3.63,4.96
16.146,-3.64,-0.79,3.51,5.12
16.156,-3.63,-1.10,2.89,4.77
16.166,-3.44,-1.60,1.93,4.26
16.176,-3.18,-2.20,0.62,3.91
16.186,-2.71,-2.58,-0.67,3.80
16.196,-1.97,-2.78,-1.44,3.70
16.206,-1.02,-2.79,-1.56,3.36
16.216,-0.18,-2.38,-1.45,2.80
16.226,0.38,-1.79,-1.96,2.68
16.236,0.82,-1.08,-2.47,2.82
16.246,1.40,-0.25,-3.91,4.16
16.256,2.26,1.15,-6.46,6.94
16.266,2.82,3.16,-6.39,7.67
16.276,2.68,5.16,-3.21,6.64
16.286,3.08,6.10,-1.80,7.07
16.296,3.92,5.80,-2.75,7.52
16.306,3.01,5.13,-1.23,6.08
16.316,0.84,4.71,0.41,4.80
16.326,-0.54,4.65,0.07,4.68
16.336,-0.96,4.65,-0.30,4.76
16.346,-1.10,4.58,0.41,4.73
16.356,-1.31,4.36,1.05,4.68
16.366,-1.74,3.31,0.85,3.83
16.376,-2.29,1.82,0.87,3.05
16.386,-2.91,0.75,1.38,3.31
16.396,-3.27,0.08,1.36,3.54
16.406,-3.21,-0.30,0.71,3.31
16.416,-3.00,-0.47,0.18,3.04
16.426,-2.52,-0.57,0.12,2.58
16.436,-1.56,-0.62,0.44,1.73
16.445,-0.63,-0.41,0.79,1.09
16.455,0.27,-0.27,1.26,1.32
16.465,0.52,-0.17,1.20,1.32
16.476,0.23,-0.66,1.31,1.48
16.485,0.25,-0.29,0.97,1.05
16.496,-0.06,0.94,1.09,1.44
16.505,-0.42,2.35,1.18,2.66
16.515,-0.77,2.85,0.69,3.03
16.525,-1.18,1.97,0.83,2.44
16.535,-1.65,0.53,1.44,2.26
16.545,-1.73,-0.69,1.20,2.22
16.556,-1.29,-1.39,0.20,1.90
16.565,-0.63,-1.43,-0.33,1.60
16.575,-0.11,-1.43,-0.03,1.44
16.585,0.14,-1.96,0.08,1.96
16.595,-0.02,-3.03,0.04,3.03
16.605,-0.31,-3.99,-0.05,4.00
16.615,-0.56,-4.45,-0.28,4.49
16.625,-0.54,-4.42,-0.62,4.50
16.635,-0.47,-4.28,-1.56,4.58
16.645,-0.25,-3.90,-1.69,4.25
16.655,0.31,-3.44,-0.95,3.59
16.665,0.81,-3.34,-0.93,3.56
16.675,0.84,-3.31,-0.93,3.54
16.685,0.69,-3.05,-0.62,3.19
16.695,0.61,-2.59,-0.56,2.72
16.705,0.59,-1.86,-0.75,2.09
16.715,0.63,-0.99,-1.30,1.75
16.725,0.57,-0.18,-2.33,2.41
16.735,0.58,0.65,-2.92,3.05
16.745,0.91,1.65,-2.74,3.33
16.755,1.14,2.57,-2.58,3.82
16.765,0.93,3.28,-2.61,4.30
16.775,0.62,3.70,-2.50,4.51
16.785,0.64,4.07,-2.16,4.65
16.795,1.00,4.22,-1.82,4.71
16.805,1.76,4.26,-1.54,4.86
16.815,3.06,4.16,-1.20,5.30
16.825,4.55,3.61,-1.10,5.91
16.835,5.69,2.79,-1.75,6.57
16.845,5.96,1.72,-2.65,6.75
16.855,5.39,0.71,-3.39,6.41
16.865,4.29,0.04,-4.25,6.04
16.875,2.93,-0.75,-4.92,5.78
16.885,1.59,-1.51,-5.18,5.62
16.895,0.54,-1.66,-4.78,5.09
16.905,-0.27,-1.29,-3.49,3.73
16.915,-0.88,-1.30,-1.77,2.36
16.925,-1.40,-1.45,-0.06,2.02
16.935,-1.67,-1.21,0.77,2.20
16.945,-1.74,-0.62,1.39,2.31
16.955,-1.38,-0.34,0.84,1.65
16.965,-0.94,0.23,-0.27,1.00
16.975,-0.58,1.73,-1.05,2.10
16.985,-0.16,3.46,-0.94,3.59
16.995,0.63,4.45,-0.60,4.53
17.005,1.44,4.68,0.06,4.90
17.015,1.97,4.40,0.52,4.85
17.025,1.72,4.01,1.73,4.69
17.035,0.59,3.69,3.57,5.17
17.045,-0.37,2.84,4.24,5.12
17.054,-0.99,1.46,4.32,4.67
17.065,-2.22,-0.22,4.15,4.71
17.074,-3.50,-1.07,3.35,4.96
17.085,-4.08,-0.69,2.59,4.88
17.094,-3.72,-0.58,2.10,4.31
17.105,-2.69,-1.42,2.02,3.65
17.115,-1.60,-1.99,2.43,3.53
17.125,-0.98,-2.11,3.00,3.80
17.135,-1.02,-1.64,3.36,3.87
17.144,-1.45,-0.67,3.37,3.73
17.155,-1.93,0.07,3.36,3.87
17.164,-2.39,0.25,3.68,4.40
17.175,-2.84,-0.36,3.78,4.74
17.184,-3.34,-1.22,3.29,4.85
17.195,-3.76,-1.74,2.41,4.79
17.204,-3.94,-2.22,1.60,4.80
17.214,-3.60,-2.72,1.06,4.63
17.224,-2.74,-2.86,0.74,4.02
17.234,-2.08,-2.83,0.35,3.53
17.244,-1.96,-2.81,-0.21,3.43
17.254,-2.03,-2.84,-0.98,3.63
17.264,-2.05,-2.76,-1.77,3.86
17.274,-2.14,-2.26,-2.01,3.71
17.284,-2.16,-1.54,-2.13,3.41
17.294,-1.78,-0.90,-2.63,3.30
17.304,-1.01,-0.75,-3.40,3.63
17.314,0.02,-0.22,-4.78,4.79
17.324,1.15,0.77,-4.75,4.95
17.334,1.84,2.50,-2.78,4.16
17.344,2.25,5.11,-1.21,5.71
17.354,3.20,7.16,-3.35,8.53
17.364,4.47,7.87,-5.91,10.81
17.374,4.62,8.35,-3.36,10.12
17.384,3.63,8.43,1.31,9.27
17.394,2.20,6.12,2.93,7.14
17.404,0.56,3.06,2.15,3.79
17.414,-1.11,1.62,1.07,2.23
17.424,-2.50,1.02,0.64,2.77
17.434,-3.17,0.90,1.08,3.47
17.444,-3.12,1.14,1.33,3.58
17.454,-2.82,1.54,1.37,3.50
17.464,-2.72,1.69,1.75,3.65
17.474,-2.66,1.39,1.56,3.38
17.484,-2.63,0.88,0.82,2.89
17.494,-2.31,0.71,0.24,2.43
17.504,-1.88,0.61,0.26,2.00
17.514,-1.11,-0.28,0.65,1.32
17.524,-0.26,-1.66,1.67,2.37
17.534,-0.05,-2.52,1.27,2.82
17.544,-0.08,-2.49,0.59,2.56
17.554,-0.24,-1.62,1.06,1.95
17.564,-0.66,-0.45,1.70,1.87
17.574,-0.81,0.52,1.55,1.82
17.584,-0.96,0.81,1.13,1.69
17.594,-1.26,0.32,0.78,1.51
17.604,-1.57,-1.00,0.98,2.10
17.614,-1.41,-2.27,0.95,2.84
17.624,-0.99,-2.87,0.50,3.08
17.634,-0.54,-3.08,0.35,3.14
17.644,-0.09,-3.08,0.11,3.09
17.654,0.13,-2.99,-0.13,2.99
17.664,0.09,-2.77,-0.41,2.80
17.673,0.05,-2.36,-0.83,2.50
17.683,0.09,-1.91,-0.83,2.08
17.694,0.49,-1.41,-0.83,1.71
17.704,0.94,-1.15,-1.04,1.81
17.713,1.06,-1.20,-1.22,2.01
17.724,0.94,-1.46,-1.29,2.17
17.734,0.98,-1.67,-1.26,2.31
17.744,1.23,-1.80,-1.51,2.65
17.754,1.68,-1.72,-1.85,3.03
17.764,1.99,-1.50,-2.29,3.38
17.774,1.69,-1.35,-2.80,3.54
17.783,1.33,-0.96,-2.60,3.07
17.794,1.16,-0.26,-1.82,2.17
17.803,0.90,0.28,-1.44,1.72
17.813,0.31,0.79,-1.82,2.01
17.824,-0.29,1.29,-2.13,2.50
17.833,-0.59,1.86,-2.03,2.82
17.843,-0.63,2.53,-1.83,3.19
17.854,-0.57,3.11,-1.69,3.59
17.863,-0.40,3.61,-1.43,3.90
17.873,0.22,3.98,-1.58,4.29
17.883,1.71,4.40,-2.04,5.14
17.893,3.89,4.63,-2.14,6.42
17.903,5.52,3.73,-2.63,7.16
17.913,5.41,2.17,-2.78,6.46
17.923,4.07,1.01,-3.24,5.30
17.933,2.72,0.81,-3.77,4.72
17.943,1.63,1.18,-4.00,4.48
17.953,0.73,1.26,-3.93,4.19
17.963,0.00,0.82,-3.56,3.65
17.973,-0.18,0.34,-2.64,2.67
17.983,-0.06,-0.10,-0.71,0.72
17.993,0.47,-0.79,-0.17,0.93
18.003,0.83,-1.35,-0.62,1.70
18.013,0.58,-1.39,-0.39,1.56
18.023,0.34,-1.24,0.38,1.34
18.033,0.74,-0.73,0.62,1.21
18.043,0.91,-0.26,1.93,2.14
18.053,1.04,0.41,1.91,2.21
18.063,1.18,1.86,0.60,2.28
18.073,0.56,3.35,1.20,3.60
18.083,-0.24,3.97,1.81,4.37
18.093,-0.90,3.54,1.80,4.07
18.103,-1.61,2.52,2.01,3.60
18.113,-2.68,1.10,2.93,4.12
18.123,-4.14,-0.50,3.53,5.46
18.133,-5.14,-1.19,3.23,6.18
18.143,-5.08,-1.11,2.73,5.87
18.153,-3.98,-1.43,2.43,4.87
18.163,-2.37,-1.85,2.67,4.02
18.173,-0.93,-1.92,3.23,3.87
18.183,0.10,-1.72,3.30,3.72
18.193,0.34,-1.31,2.98,3.27
18.203,-0.12,-0.64,2.42,2.50
18.213,-0.88,-0.29,2.02,2.22
18.223,-1.51,-0.41,1.97,2.52
18.233,-2.04,-0.49,2.47,3.24
18.243,-2.52,-0.67,3.28,4.19
18.253,-2.91,-0.63,3.61,4.68
18.263,-3.25,-0.69,2.80,4.35
18.273,-3.19,-1.15,1.08,3.56
18.283,-3.04,-1.72,0.03,3.49
18.293,-2.99,-2.23,-0.29,3.75
18.303,-2.85,-2.81,-0.74,4.07
18.313,-2.46,-2.99,-1.21,4.06
18.323,-1.94,-2.41,-1.37,3.38
18.333,-1.40,-1.48,-1.31,2.43
18.343,-0.82,-0.66,-1.21,1.60
18.353,-0.15,0.04,-0.89,0.90
18.363,0.65,0.72,-0.54,1.11
18.374,1.82,1.78,-1.97,3.22
18.383,3.13,3.71,-5.44,7.30
18.393,3.86,5.74,-6.63,9.58
18.403,4.08,7.13,-4.52,9.38
18.413,4.10,6.83,-3.08,8.55
18.423,2.37,4.68,-2.81,5.95
18.433,-0.73,2.04,0.26,2.18
18.443,-3.12,1.39,2.31,4.12
18.452,-3.58,2.02,1.00,4.23
18.462,-2.51,3.07,-1.32,4.18
18.473,-1.03,4.03,-1.03,4.28
18.482,0.33,3.97,0.63,4.04
18.492,0.96,2.81,1.00,3.13
18.502,0.21,1.75,0.31,1.79
18.512,-1.40,1.14,0.49,1.87
18.522,-2.67,0.27,0.50,2.73
18.532,-3.22,-0.69,0.48,3.32
18.542,-2.92,-1.33,1.12,3.39
18.552,-1.81,-1.81,1.53,2.98
18.562,-0.58,-1.79,-0.16,1.89
18.572,-0.00,-1.67,-1.58,2.29
18.582,0.05,-1.41,0.07,1.42
18.592,0.21,-1.18,0.90,1.50
18.602,0.18,-0.91,1.16,1.48
18.613,-0.10,0.03,1.17,1.17
18.622,-0.62,1.61,1.14,2.07
18.632,-1.43,3.15,1.03,3.61
18.642,-1.74,3.61,1.11,4.16
18.652,-1.61,2.24,1.34,3.07
18.662,-1.87,1.25,1.57,2.74
18.672,-1.57,0.65,0.68,1.83
18.682,-1.18,-0.36,0.12,1.24
18.692,-0.80,-1.57,0.30,1.79
18.702,-0.16,-2.19,0.70,2.31
18.712,0.45,-1.90,0.63,2.05
18.722,0.61,-1.55,0.68,1.80
18.732,0.40,-1.85,0.65,2.00
18.742,0.35,-2.34,0.09,2.37
18.752,-0.59,-2.87,0.41,2.96
18.762,-0.60,-3.44,-0.25,3.50
18.772,-0.29,-3.59,-0.70,3.67
18.782,-0.35,-3.56,-1.00,3.71
18.792,-0.13,-3.65,-1.06,3.81
18.802,0.64,-3.44,-1.73,3.90
18.812,1.74,-3.06,-1.92,4.01
18.822,2.66,-3.01,-1.22,4.19
18.832,2.58,-3.22,-1.42,4.36
18.842,1.74,-3.34,-2.10,4.31
18.852,1.29,-2.85,-1.94,3.68
18.862,1.36,-2.03,-1.55,2.89
18.872,1.30,-1.57,-1.60,2.59
18.882,0.89,-1.19,-1.64,2.21
18.892,0.47,-0.12,-1.61,1.68
18.902,-0.14,0.82,-1.53,1.74
18.912,-0.68,1.64,-1.70,2.46
18.922,-0.91,2.84,-1.79,3.48
18.932,-0.71,3.96,-1.80,4.41
18.942,-0.22,4.38,-1.76,4.72
18.952,0.32,4.51,-1.75,4.85
18.962,0.35,4.32,-1.38,4.55
18.972,0.05,3.79,-1.63,4.13
18.982,-0.27,3.80,-1.97,4.29
18.992,-0.09,3.79,-3.87,5.41
19.002,0.76,4.24,-5.21,6.76
19.012,2.16,4.56,-5.22,7.26
19.022,3.12,3.77,-3.82,6.21
19.032,3.40,1.93,-2.96,4.90
19.042,2.94,0.77,-3.01,4.28
19.052,2.57,0.03,-2.97,3.93
19.062,2.51,-0.56,-2.33,3.47
19.071,2.57,-0.99,-1.33,3.06
19.082,2.42,-1.42,-0.69,2.89
19.092,2.25,-2.27,-0.55,3.25
19.102,1.78,-2.79,-0.41,3.33
19.112,0.90,-2.72,-0.79,2.97
19.122,0.01,-2.31,-0.99,2.52
19.132,-0.56,-1.41,-1.09,1.87
19.142,-0.98,-0.33,-0.49,1.15
19.151,-1.33,0.85,0.54,1.66
19.162,-1.51,2.00,1.44,2.89
19.172,-1.26,2.38,1.70,3.18
19.181,-0.74,2.03,1.68,2.74
19.191,-0.29,1.25,1.95,2.33
19.201,-0.26,0.48,2.33,2.40
19.211,-0.85,-0.22,2.88,3.01
19.221,-1.78,-1.03,3.41,3.98
19.231,-2.51,-1.77,3.51,4.66
19.241,-2.94,-2.04,3.27,4.84
19.251,-3.04,-1.97,2.95,4.67
19.261,-2.69,-1.66,2.95,4.33
19.271,-1.79,-1.66,3.63,4.37
19.281,-0.24,-2.34,3.67,4.36
19.291,0.99,-2.89,2.84,4.17
19.301,1.13,-3.25,2.51,4.25
19.311,0.15,-3.42,2.29,4.12
19.321,-1.07,-3.27,2.00,3.98
19.331,-2.24,-2.94,2.07,4.23
19.341,-3.10,-2.47,2.52,4.70
19.351,-3.44,-1.92,3.17,5.06
19.361,-3.40,-1.37,3.49,5.06
19.371,-3.35,-0.89,3.27,4.77
19.381,-3.45,-0.49,2.86,4.51
19.391,-3.39,-0.26,2.24,4.07
19.401,-3.00,-0.19,1.78,3.49
19.411,-2.30,-0.36,1.37,2.70
19.421,-1.60,-0.27,0.97,1.89
19.431,-0.65,0.34,0.44,0.85
19.441,-0.30,1.16,-0.46,1.29
19.451,-0.47,1.80,-1.48,2.38
19.461,-0.26,1.93,-2.40,3.09
19.471,0.02,1.81,-2.51,3.10
19.481,0.17,2.00,-2.42,3.15
19.491,0.56,2.08,-2.70,3.45
19.501,0.99,2.22,-2.69,3.63
19.511,1.48,2.42,-2.06,3.51
19.521,2.37,2.50,-1.65,3.82
19.531,3.59,2.50,-1.79,4.73
19.541,4.90,2.97,-2.16,6.12
19.551,5.72,4.46,-2.49,7.66
19.561,5.72,6.17,-2.78,8.86
19.571,5.36,5.50,-2.95,8.22
19.581,5.31,5.72,-3.75,8.66
19.591,3.25,6.48,-3.86,8.21
19.601,1.05,6.53,-2.64,7.12
19.611,0.25,5.86,-1.55,6.06
19.621,0.34,4.48,-1.01,4.60
19.631,0.66,3.64,-0.01,3.70
19.641,0.68,2.68,0.67,2.85
19.651,0.60,1.67,1.58,2.37
19.661,0.79,1.42,2.00,2.58
19.671,1.42,1.19,0.67,1.97
19.681,2.47,1.05,-0.34,2.71
19.691,3.84,1.27,-0.24,4.05
19.701,4.41,1.75,0.28,4.75
19.711,4.63,2.34,0.91,5.27
19.721,5.02,2.33,1.87,5.84
19.731,5.04,1.20,2.22,5.64
19.741,4.38,-0.97,1.45,4.72
19.751,2.63,-2.23,2.26,4.12
19.761,1.25,-2.32,1.35,2.96
19.771,0.23,-2.93,0.38,2.96
19.781,-0.24,-3.18,1.77,3.64
19.791,1.82,-3.18,3.22,4.88
19.800,3.49,-2.84,3.63,5.78
19.810,4.44,-2.67,2.03,5.56
19.821,5.49,-3.02,1.21,6.38
19.830,5.22,-3.56,1.01,6.40
19.840,3.94,-4.27,0.29,5.81
19.850,2.96,-4.71,-0.28,5.57
19.860,3.69,-4.87,0.43,6.13
19.870,5.82,-5.52,2.59,8.43
19.880,7.42,-6.35,2.43,10.06
19.891,8.84,-5.79,1.32,10.65
19.900,9.43,-4.20,0.63,10.35
19.910,8.41,-3.03,-1.20,9.02
19.920,6.94,-2.27,-2.66,7.77
19.930,4.40,-2.28,-3.81,6.25
19.940,1.72,-2.64,-4.71,5.66
19.950,-0.11,-3.20,-4.58,5.59
19.960,-1.16,-4.26,-4.01,5.97
19.970,-0.63,-5.41,-2.65,6.05
19.980,0.36,-6.19,-1.92,6.49
19.990,1.25,-6.05,-2.14,6.54
20.000,2.62,-5.23,-2.06,6.20
20.010,3.10,-3.96,-2.62,5.67
20.020,2.86,-2.73,-3.37,5.20
20.030,2.22,-2.50,-3.81,5.07
20.040,1.15,-2.86,-3.94,5.00
20.050,0.99,-3.37,-3.10,4.68
20.060,1.77,-4.17,-1.43,4.75
20.070,2.59,-4.39,-0.41,5.11
20.080,3.74,-4.24,-0.51,5.68
20.090,4.55,-3.33,-0.81,5.69
20.100,4.54,-1.61,-1.49,5.04
20.110,4.36,-1.04,-1.93,4.88
20.120,4.32,-1.09,-1.93,4.86
20.130,3.78,-0.67,-1.90,4.28
20.140,3.73,-0.07,-1.97,4.22
20.150,3.26,0.75,-2.30,4.06
20.160,2.77,1.37,-3.10,4.37
20.170,2.42,1.63,-3.58,4.61
20.180,2.04,1.46,-4.09,4.80
20.190,1.93,1.27,-3.68,4.35
20.200,1.61,1.40,-3.42,4.03
20.210,1.00,2.74,-3.64,4.66
20.220,0.84,3.27,-2.24,4.05
20.230,1.10,5.37,1.92,5.81
20.240,5.62,7.48,8.16,12.42
20.250,-0.46,3.03,-9.42,9.90
20.260,-2.85,-0.11,-4.24,5.11
20.270,-0.79,0.60,-0.52,1.12
20.280,-1.39,-1.19,-0.57,1.92
20.290,-1.24,-2.03,2.09,3.17
20.300,1.48,-2.72,1.52,3.45
20.310,3.66,-2.46,1.46,4.65
20.320,3.42,-1.11,1.40,3.86
20.330,3.56,-0.72,0.24,3.64
20.340,4.12,0.05,-1.06,4.25
20.350,4.59,0.73,-2.03,5.07
20.360,4.94,1.04,-2.59,5.68
20.370,4.24,0.92,-3.45,5.54
20.380,3.64,1.06,-3.46,5.13
20.390,3.52,1.37,-2.62,4.60
20.400,3.31,1.16,-2.15,4.11
20.410,3.67,0.46,-1.98,4.19
20.420,4.42,-1.32,-1.28,4.79
20.429,4.11,-3.34,-0.80,5.36
20.440,3.50,-4.34,-0.28,5.58
20.449,2.94,-3.96,0.37,4.94
20.460,2.55,-2.86,0.84,3.92
20.469,2.50,-1.71,0.79,3.13
20.479,2.98,-0.76,0.36,3.09
20.489,3.66,-0.55,-0.56,3.74
20.499,4.02,-0.89,-1.78,4.49
20.510,4.06,-1.41,-2.14,4.80
20.519,3.96,-1.86,-0.77,4.44
20.530,3.31,-1.93,-0.45,3.86
20.539,2.14,-2.19,1.36,3.35
20.550,1.97,-1.36,3.70,4.41
20.560,1.84,-0.42,3.04,3.58
20.569,3.29,0.61,0.31,3.36
20.579,2.48,0.25,0.51,2.55
20.589,2.37,-0.69,-0.14,2.47
20.599,2.31,-1.53,-0.77,2.87
20.609,2.68,-1.89,-1.00,3.43
20.619,3.01,-1.69,-0.88,3.56
20.629,2.71,-1.30,-0.04,3.01
20.639,2.30,-0.97,1.30,2.82
20.649,1.73,-1.03,2.64,3.32
20.659,1.12,-0.73,2.53,2.86
20.669,0.59,-0.94,1.93,2.22
20.679,0.12,-0.83,1.35,1.59
20.689,-0.59,-0.85,0.58,1.19
20.699,-1.09,-0.72,-0.29,1.34
20.709,-0.79,-0.05,0.04,0.80
20.719,-0.68,-0.08,1.36,1.52
20.729,-0.43,-0.55,2.86,2.94
20.739,-0.34,-1.37,4.42,4.64
20.749,-0.09,-1.90,4.26,4.67
20.759,0.35,-1.83,3.28,3.77
20.769,0.69,-1.55,2.35,2.90
20.779,1.03,-1.20,0.73,1.75
20.789,1.12,-1.20,-0.13,1.65
20.799,1.21,-1.48,-0.22,1.92
20.809,1.27,-1.64,-0.36,2.10
20.819,1.19,-1.59,-0.28,2.01
20.829,1.02,-1.30,0.34,1.69
20.839,0.86,-0.89,1.03,1.61
20.849,0.74,-1.06,0.65,1.45
20.859,0.55,-1.65,0.67,1.87
20.869,0.65,-1.77,1.27,2.27
20.879,0.78,-1.71,1.48,2.39
20.889,0.77,-1.80,1.37,2.39
20.899,0.48,-1.77,1.61,2.44
20.909,0.29,-1.60,1.28,2.07
20.919,0.58,-1.54,0.49,1.72
20.929,1.00,-1.62,0.11,1.90
20.939,1.28,-1.66,0.23,2.11
20.949,1.25,-1.47,0.51,2.00
20.959,1.12,-1.66,0.56,2.08
20.969,1.16,-2.20,0.16,2.49
20.980,1.22,-2.52,-0.53,2.85
20.989,1.24,-2.78,-0.72,3.12
