time,ax,ay,az,atotal
0.000,-0.18,-0.73,-1.13,1.35
0.010,-0.11,-0.70,-1.65,1.80
0.020,0.05,-0.60,-2.03,2.12
0.030,0.06,-0.37,-2.11,2.14
0.040,0.02,-0.34,-1.73,1.76
0.050,0.15,0.17,-2.07,2.08
0.060,0.32,0.43,-1.43,1.52
0.070,-0.48,0.40,-0.90,1.09
0.080,-0.98,0.72,-0.84,1.47
0.090,-0.55,1.19,-0.35,1.36
0.100,-0.32,1.22,-0.00,1.26
0.110,-0.07,0.80,-0.39,0.90
0.120,0.07,0.34,-1.08,1.13
0.130,0.22,0.37,-1.57,1.63
0.140,0.24,0.37,-1.82,1.87
0.150,0.04,0.07,-1.53,1.53
0.160,-0.16,-0.16,-0.44,0.49
0.170,-0.39,-0.35,0.91,1.05
0.180,-0.59,-0.57,1.71,1.89
0.189,-0.74,-0.66,1.79,2.05
0.200,-0.80,-0.65,1.43,1.76
0.210,-0.73,-0.59,0.71,1.18
0.220,-0.48,-0.55,-0.26,0.77
0.230,-0.12,-0.58,-1.17,1.31
0.239,0.16,-0.56,-1.62,1.72
0.250,0.22,-0.34,-1.66,1.71
0.260,0.21,-0.23,-1.55,1.58
0.269,0.19,-0.22,-1.29,1.32
0.280,0.20,-0.21,-1.03,1.07
0.289,0.16,-0.08,-0.88,0.90
0.299,-0.03,0.37,-0.77,0.86
0.309,0.00,0.63,-0.65,0.91
0.319,0.31,0.47,-0.44,0.71
0.329,0.63,0.23,-0.15,0.69
0.339,0.68,0.12,0.14,0.71
0.349,0.46,0.17,0.53,0.72
0.359,-0.31,0.36,0.33,0.58
0.369,-0.93,-0.14,2.94,3.09
0.379,-1.12,-0.33,4.32,4.48
0.389,-1.09,-0.28,5.61,5.72
0.399,-0.63,-0.21,6.13,6.17
0.409,-0.17,-0.17,5.91,5.91
0.419,0.44,-0.50,4.78,4.83
0.429,0.81,-1.10,3.17,3.45
0.439,0.91,-1.62,1.93,2.68
0.449,1.45,-1.28,0.97,2.16
0.459,1.64,-0.89,-0.21,1.88
0.469,1.54,-1.09,-1.11,2.18
0.479,1.57,-1.46,-1.79,2.79
0.489,1.48,-1.78,-2.55,3.44
0.499,1.44,-2.00,-2.75,3.69
0.509,1.20,-1.83,-2.08,3.01
0.519,0.75,-1.36,-1.27,2.01
0.529,0.22,-0.41,-0.22,0.51
0.539,-0.10,0.73,0.88,1.15
0.549,-0.03,0.89,1.21,1.50
0.559,-0.08,0.44,1.09,1.18
0.569,-0.12,-0.20,0.33,0.41
0.579,0.06,-0.96,-0.64,1.16
0.589,0.18,-1.32,-1.04,1.69
0.599,0.32,-1.15,-0.96,1.53
0.609,0.58,-0.74,-0.40,1.02
0.619,0.93,-0.24,0.46,1.06
0.629,1.48,0.37,1.27,1.99
0.639,1.42,1.18,1.80,2.58
0.649,1.23,1.20,1.76,2.47
0.659,1.22,0.52,1.58,2.07
0.669,1.45,-0.69,1.41,2.13
0.679,1.37,-1.57,1.19,2.40
0.689,2.02,-2.00,1.32,3.13
0.699,2.22,-2.07,1.54,3.41
0.709,2.25,-2.22,1.91,3.69
0.719,2.16,-2.72,2.60,4.35
0.729,2.08,-3.33,2.60,4.71
0.739,2.03,-4.22,1.61,4.95
0.749,2.18,-4.51,1.45,5.22
0.759,2.46,-3.12,2.60,4.75
0.769,2.49,-1.84,3.98,5.04
0.779,2.65,-2.28,5.30,6.35
0.789,2.77,-3.09,5.89,7.20
0.799,1.31,-4.06,2.88,5.14
0.809,1.06,-3.28,-5.23,6.27
0.818,2.66,-1.54,-6.54,7.23
0.828,0.76,-1.68,-7.76,7.97
0.839,-1.70,-1.44,-1.72,2.82
0.849,-4.16,-0.84,7.96,9.02
0.859,-3.76,-2.32,8.94,9.97
0.869,-1.06,-4.80,7.65,9.09
0.878,0.66,-6.86,7.98,10.55
0.889,1.66,-5.34,6.03,8.22
0.899,0.48,0.73,3.54,3.64
0.909,-2.24,2.27,5.87,6.68
0.918,-4.32,0.48,5.65,7.13
0.929,-5.85,1.61,6.27,8.73
0.939,-7.47,2.89,6.61,10.38
0.948,-8.65,2.60,6.03,10.86
0.958,-9.72,1.54,5.78,11.41
0.969,-9.76,0.34,6.32,11.64
0.978,-8.71,-0.07,5.42,10.26
0.988,-7.92,1.24,2.96,8.55
0.999,-7.43,2.68,0.76,7.93
1.008,-7.48,4.91,-2.56,9.31
1.018,-8.19,8.53,-4.97,12.83
1.028,-8.58,9.69,-5.21,13.96
1.038,-7.57,9.38,-3.12,12.45
1.048,-5.67,10.23,-2.33,11.93
1.058,-3.36,10.73,-2.37,11.50
1.070,-0.69,10.69,-4.43,11.59
1.079,1.77,11.90,-6.20,13.53
1.090,4.49,13.50,-7.89,16.27
1.098,6.22,12.60,-9.23,16.81
1.109,6.65,11.73,-9.46,16.48
1.120,6.73,12.45,-9.94,17.30
1.128,7.17,12.33,-10.46,17.69
1.139,8.02,10.89,-9.99,16.81
1.148,9.06,9.30,-9.51,16.10
1.158,9.72,7.20,-9.53,15.40
1.168,10.36,4.95,-8.08,14.05
1.178,11.13,1.32,-5.38,12.44
1.188,13.74,0.61,-1.63,13.85
1.198,16.77,0.69,2.01,16.91
1.208,11.73,-8.25,4.85,15.14
1.218,8.95,-9.63,0.79,13.17
1.228,9.07,-7.32,1.18,11.71
1.238,6.47,-3.77,1.44,7.63
1.248,6.37,-3.50,1.27,7.38
1.258,5.98,-7.55,1.42,9.73
1.268,4.41,-7.04,0.23,8.31
1.278,2.46,-4.50,-3.44,6.18
1.288,3.31,-4.30,-4.38,6.98
1.298,3.98,-7.01,-3.48,8.78
1.308,4.68,-9.07,0.04,10.21
1.318,4.16,-10.77,3.61,12.10
1.328,3.13,-10.29,5.08,11.90
1.338,1.14,-9.88,5.79,11.51
1.348,-1.09,-9.46,5.81,11.16
1.358,-2.59,-7.89,3.03,8.84
1.368,-3.30,-5.34,-0.06,6.28
1.378,-2.85,-2.96,0.15,4.11
1.388,-1.08,-1.88,0.92,2.36
1.398,0.61,-1.46,1.77,2.37
1.408,0.92,-1.81,2.87,3.52
1.418,1.10,-2.21,2.94,3.84
1.428,0.51,-1.87,2.05,2.82
1.438,-0.21,-4.92,2.10,5.35
1.448,-1.29,-3.36,-6.89,7.77
1.458,-2.37,-0.58,-10.40,10.68
1.468,-2.08,0.59,-9.82,10.05
1.478,1.23,1.21,-7.02,7.23
1.488,5.61,-0.66,-5.02,7.56
1.498,6.58,0.73,-1.30,6.75
1.508,7.25,2.81,0.54,7.80
1.518,7.48,4.02,0.70,8.52
1.527,7.07,4.21,2.89,8.72
1.538,7.51,4.33,2.79,9.11
1.548,7.08,5.75,0.66,9.15
1.557,4.97,6.68,0.38,8.33
1.568,3.86,7.02,-0.76,8.05
1.577,3.38,7.05,1.40,7.94
1.587,1.71,5.95,1.47,6.36
1.597,0.91,5.59,0.40,5.67
1.608,1.38,4.29,0.21,4.51
1.618,1.00,0.96,2.20,2.60
1.628,0.23,-1.19,3.06,3.29
1.637,-0.03,-3.22,2.91,4.34
1.647,-0.20,-4.56,2.47,5.19
1.657,-0.38,-5.69,1.69,5.95
1.667,-0.54,-6.70,1.31,6.85
1.677,-0.88,-7.34,1.00,7.46
1.688,-1.12,-6.58,0.33,6.69
1.697,-0.58,-4.31,-0.39,4.37
1.707,0.62,-2.53,-1.03,2.80
1.717,2.38,0.28,-1.00,2.60
1.727,2.67,2.73,-2.50,4.56
1.737,0.43,5.00,-5.17,7.20
1.747,-0.92,4.95,-4.74,6.92
1.757,-1.19,3.82,-3.54,5.34
1.767,-1.09,1.99,-2.18,3.14
1.777,-0.34,-0.52,1.08,1.25
1.787,0.23,-2.11,3.40,4.01
1.797,0.20,-2.55,3.68,4.48
1.807,0.09,-2.73,4.79,5.51
1.817,-0.07,-2.79,5.55,6.21
1.827,-0.85,-1.51,3.00,3.46
1.837,-2.19,1.56,-2.02,3.36
1.847,-3.23,5.23,-6.10,8.66
1.857,-4.04,7.41,-8.01,11.64
1.867,-3.52,7.08,-8.05,11.28
1.877,-2.11,5.29,0.04,5.70
1.887,0.20,4.64,6.99,8.39
1.897,5.39,3.88,1.20,6.75
1.907,6.45,3.46,-1.94,7.57
1.917,3.84,3.84,-2.32,5.91
1.927,0.37,3.74,-4.01,5.49
1.937,-2.26,0.61,-2.59,3.49
1.947,-3.03,-2.03,-0.80,3.73
1.957,-1.84,-1.33,-0.18,2.28
1.967,-0.71,-0.25,1.05,1.29
1.977,-0.26,-0.81,3.58,3.68
1.987,-0.92,-1.80,5.72,6.07
1.997,-2.30,-3.19,6.29,7.42
2.007,-2.70,0.44,2.51,3.71
2.017,-1.95,-1.69,0.42,2.62
2.027,-1.53,-1.22,2.62,3.26
2.037,-0.72,-0.98,2.59,2.86
2.047,0.83,-1.89,0.54,2.13
2.057,1.97,-2.09,-0.65,2.94
2.067,2.29,-1.65,-0.55,2.88
2.077,1.91,-0.91,0.03,2.12
2.087,1.48,-0.61,-0.18,1.61
2.097,0.97,-0.48,-0.85,1.38
2.107,0.18,-0.33,-1.14,1.20
2.117,-0.61,-0.35,-1.10,1.30
2.127,-1.34,-0.38,-1.05,1.74
2.137,-1.85,-0.47,-1.30,2.31
2.147,-3.83,-9.00,-5.33,11.14
2.157,-3.82,-8.50,-6.78,11.53
2.167,-3.29,-10.19,-6.91,12.75
2.177,-1.84,-8.79,-1.78,9.16
2.187,1.70,-2.60,1.87,3.62
2.197,4.33,10.44,-1.17,11.36
2.207,1.60,14.70,-2.10,14.93
2.217,-1.03,16.64,-2.16,16.82
2.227,-1.45,21.88,-2.50,22.07
2.236,-3.15,9.12,0.36,9.65
2.247,-0.98,5.20,0.51,5.31
2.257,0.51,-5.49,0.61,5.55
2.267,1.58,-1.08,2.11,2.85
2.277,3.24,8.91,0.15,9.48
2.286,1.36,9.44,0.12,9.54
2.296,-1.65,3.98,0.88,4.39
2.307,-2.87,0.83,0.25,3.00
2.317,-2.01,1.45,1.43,2.86
2.326,-1.57,1.21,3.09,3.67
2.337,-1.59,0.16,1.52,2.21
2.347,-1.27,-0.80,0.86,1.73
2.357,-3.02,-0.34,0.79,3.14
2.367,-5.24,-1.37,-0.04,5.41
2.376,-5.20,-4.27,-0.81,6.78
2.387,-3.44,-6.07,-0.93,7.03
2.396,-1.36,-3.07,0.22,3.37
2.406,-0.52,-0.32,0.52,0.80
2.416,-0.25,-0.05,0.76,0.80
2.427,-0.12,-0.17,0.53,0.57
2.436,-0.14,-0.63,-0.19,0.68
2.446,-0.42,-1.31,-1.00,1.70
2.456,-0.69,-1.92,-1.04,2.29
2.466,-0.57,-2.50,0.03,2.57
2.476,-0.11,-2.93,0.45,2.96
2.486,0.23,-3.02,-0.00,3.03
2.496,0.47,-2.69,-0.47,2.77
2.506,0.61,-2.14,-0.86,2.39
2.516,0.47,-1.71,-1.36,2.24
2.526,0.35,-1.64,-1.63,2.34
2.536,0.57,-1.41,-1.46,2.11
2.546,1.20,-1.00,-1.28,2.02
2.556,1.61,-0.80,-1.35,2.25
2.566,1.04,-1.29,-1.92,2.54
2.576,0.06,-1.78,-2.72,3.25
2.586,-0.17,-1.39,-3.48,3.75
2.596,0.27,-0.20,-4.10,4.11
2.606,0.77,1.10,-4.47,4.66
2.616,1.51,2.30,-3.97,4.83
2.626,2.34,3.33,-2.94,5.02
2.636,2.81,3.82,-2.32,5.28
2.646,2.63,3.81,-2.56,5.29
2.656,2.30,3.69,-3.39,5.51
2.666,2.47,3.59,-4.10,5.99
2.676,3.29,3.37,-4.31,6.38
2.686,4.34,3.10,-4.84,7.20
2.696,5.00,2.30,-5.31,7.64
2.706,5.10,1.32,-4.65,7.03
2.716,4.77,1.06,-3.99,6.31
2.726,4.03,1.09,-3.84,5.67
2.736,3.00,0.78,-4.14,5.17
2.746,1.76,-0.05,-4.59,4.92
2.756,0.63,-0.64,-3.68,3.79
2.766,-0.34,-0.72,-2.34,2.48
2.776,-1.07,-0.73,-1.31,1.84
2.786,-1.66,-1.20,-0.15,2.05
2.796,-2.18,-2.04,0.89,3.12
2.806,-1.84,-2.69,1.17,3.46
2.816,-0.60,-3.56,0.84,3.71
2.826,0.91,-4.42,0.56,4.55
2.836,1.97,-2.71,-0.68,3.42
2.846,1.32,1.74,-2.04,2.99
2.856,-0.53,6.65,-1.36,6.81
2.866,-2.31,8.53,-0.07,8.83
2.876,-3.11,7.98,0.43,8.58
2.886,-2.37,6.52,-0.05,6.94
2.896,-1.52,4.64,0.16,4.88
2.906,-1.76,2.18,2.00,3.45
2.916,-2.58,0.29,3.64,4.48
2.926,-3.22,-0.78,4.66,5.72
2.936,-3.05,-1.69,5.56,6.56
2.946,-2.15,-2.65,6.00,6.90
2.956,-1.28,-3.51,5.87,6.96
2.965,-0.83,-3.76,5.06,6.36
2.976,-1.02,-3.45,3.65,5.13
2.986,-1.60,-2.92,2.73,4.30
2.996,-2.19,-2.28,3.04,4.38
3.006,-2.51,-2.18,3.60,4.91
3.015,-2.57,-2.75,3.53,5.16
3.025,-2.54,-3.75,1.98,4.95
3.035,-2.47,-4.70,0.05,5.31
3.045,-2.36,-5.25,-0.91,5.83
3.055,-2.75,-5.11,-0.36,5.81
3.065,-3.02,-4.72,0.53,5.63
3.075,-2.73,-4.03,0.58,4.90
3.086,-2.04,-2.77,-0.10,3.45
3.095,-1.37,-1.26,-1.20,2.21
3.106,-0.93,0.17,-2.68,2.84
3.115,-0.47,0.96,-4.30,4.43
3.125,0.08,1.46,-5.76,5.94
3.135,0.46,2.25,-5.56,6.01
3.145,0.47,2.89,-3.67,4.69
3.155,-0.18,3.93,-2.26,4.54
3.165,-1.44,5.28,-1.66,5.72
3.175,-2.50,6.11,-2.07,6.92
3.185,-2.37,6.79,-2.56,7.64
3.195,-1.03,8.23,-1.57,8.44
3.205,1.17,9.10,-0.12,9.18
3.215,3.26,6.84,2.22,7.89
3.225,3.54,3.25,2.61,5.47
3.235,1.52,1.21,1.49,2.45
3.245,-1.00,-0.25,1.12,1.52
3.255,-2.79,-1.26,1.13,3.27
3.265,-3.51,-1.81,0.81,4.03
3.275,-3.20,-1.96,0.81,3.84
3.285,-2.27,-1.42,0.32,2.70
3.295,-1.27,-0.47,-0.59,1.48
3.305,-0.71,0.10,0.06,0.72
3.315,-0.75,0.43,0.45,0.98
3.325,-0.85,0.95,0.59,1.40
3.335,-1.14,1.72,0.10,2.07
3.345,-1.81,2.48,-0.81,3.17
3.355,-2.31,2.48,-0.35,3.40
3.365,-1.96,0.88,0.78,2.29
3.375,-1.10,-1.17,1.46,2.17
3.385,-0.07,-2.75,0.96,2.91
3.395,0.77,-3.78,0.31,3.87
3.405,1.23,-4.13,0.38,4.32
3.415,1.42,-3.92,0.52,4.20
3.425,1.60,-3.71,0.46,4.06
3.435,1.79,-3.94,0.44,4.35
3.445,1.61,-4.59,0.24,4.87
3.455,1.04,-5.50,0.44,5.62
3.465,0.61,-6.01,1.44,6.21
3.475,0.48,-6.16,1.67,6.41
3.485,0.27,-6.23,0.64,6.27
3.495,0.09,-5.92,-0.68,5.96
3.505,-0.19,-5.53,-1.68,5.78
3.515,-0.74,-5.58,-2.73,6.25
3.525,-1.04,-5.37,-3.43,6.45
3.535,-0.41,-4.31,-3.01,5.27
3.545,0.63,-2.48,-2.31,3.44
3.555,0.97,-0.53,-2.54,2.77
3.565,0.64,1.93,-2.93,3.56
3.575,0.32,5.43,-2.18,5.86
3.585,-0.12,8.36,-2.01,8.60
3.594,-0.75,10.21,-3.66,10.87
3.605,-0.92,11.56,-5.10,12.66
3.616,-0.27,12.55,-5.77,13.81
3.626,1.36,12.76,-5.78,14.07
3.636,3.79,11.04,-4.93,12.67
3.644,6.13,7.31,-3.90,10.30
3.655,7.97,2.83,-6.86,10.89
3.665,7.43,0.81,-6.87,10.15
3.675,5.11,1.69,-3.05,6.19
3.685,3.71,2.17,-2.06,4.77
3.694,3.42,0.34,-3.82,5.14
3.705,3.07,-2.35,-4.64,6.04
3.714,2.03,-3.79,-2.88,5.18
3.725,0.69,-4.36,-0.94,4.52
3.734,-0.23,-4.64,-0.30,4.65
3.744,-0.88,-5.00,-0.84,5.15
3.754,-1.66,-4.94,-1.04,5.31
3.764,-2.09,-3.80,-0.77,4.41
3.774,-1.83,-1.88,-0.25,2.64
3.784,-1.00,0.50,-0.19,1.14
3.794,-0.02,3.81,-0.88,3.91
3.804,-0.18,6.83,-0.50,6.85
3.814,-1.35,8.44,1.47,8.67
3.824,-2.28,8.07,2.56,8.77
3.834,-2.42,5.88,2.92,7.00
3.844,-1.93,3.25,3.25,4.99
3.854,-1.89,0.10,3.71,4.17
3.864,-2.35,-2.42,3.88,5.14
3.874,-2.58,-3.12,4.07,5.74
3.884,-2.44,-2.86,4.39,5.78
3.894,-1.99,-3.04,4.48,5.77
3.904,-1.41,-3.56,4.61,6.00
3.914,-1.10,-3.59,4.59,5.93
3.924,-1.26,-2.57,4.29,5.16
3.934,-1.81,-1.93,3.86,4.68
3.944,-2.30,-1.98,3.85,4.90
3.954,-2.45,-2.54,3.91,5.26
3.964,-2.33,-3.93,2.71,5.31
3.974,-1.92,-5.28,0.43,5.64
3.984,-1.18,-5.92,-0.56,6.06
3.994,-0.84,-5.24,0.42,5.33
4.004,-0.83,-4.34,1.15,4.57
4.014,-1.03,-3.95,-0.02,4.09
4.024,-1.64,-3.34,-1.27,3.93
4.034,-2.11,-2.41,-1.50,3.54
4.044,-2.22,-1.18,-2.02,3.22
4.054,-1.96,0.06,-2.55,3.22
4.064,-1.18,1.23,-3.88,4.24
4.074,-0.10,2.77,-5.68,6.33
4.084,0.41,4.26,-4.36,6.10
4.094,0.24,5.76,-1.29,5.90
4.104,-0.33,7.33,-1.45,7.48
4.114,-1.11,7.29,-4.17,8.47
4.124,-1.54,5.68,-4.85,7.63
4.134,-1.44,4.94,-1.84,5.47
4.144,-0.24,5.31,0.80,5.37
4.154,1.57,5.14,2.32,5.86
4.164,2.21,3.85,3.22,5.48
4.174,0.96,2.18,1.90,3.05
4.184,-1.14,0.84,0.77,1.61
4.194,-2.83,-0.08,0.93,2.98
4.204,-3.78,-0.77,0.89,3.96
4.214,-3.77,-0.68,0.42,3.85
4.223,-3.04,-0.03,0.34,3.06
4.234,-2.04,0.46,0.34,2.12
4.244,-1.02,0.43,-0.33,1.16
4.254,-0.37,-0.27,0.23,0.51
4.264,-0.35,-0.93,0.19,1.01
4.274,-0.71,-0.69,0.47,1.09
4.284,-1.01,0.60,1.03,1.56
4.294,-1.39,1.67,0.81,2.32
4.304,-1.83,1.98,0.62,2.77
4.314,-2.05,1.12,1.27,2.66
4.323,-1.53,-0.59,1.57,2.27
4.333,-0.67,-2.42,1.44,2.90
4.344,0.06,-3.73,1.25,3.93
4.353,0.51,-4.45,1.23,4.64
4.364,0.83,-4.66,1.40,4.94
4.373,1.19,-4.46,1.02,4.73
4.383,1.48,-4.17,0.72,4.48
4.393,1.73,-3.91,1.26,4.46
4.403,1.65,-3.96,1.12,4.43
4.413,1.03,-4.34,0.14,4.47
4.423,0.33,-4.57,-0.73,4.64
4.433,0.18,-4.39,-0.93,4.49
4.443,0.65,-4.09,-0.63,4.19
4.453,0.79,-3.87,-1.46,4.22
4.463,0.14,-4.01,-3.00,5.01
4.473,-0.31,-3.84,-3.62,5.28
4.483,0.19,-2.93,-4.00,4.96
4.493,1.31,-1.41,-3.50,3.99
4.503,1.99,0.51,-2.38,3.14
4.513,1.85,2.06,-2.04,3.44
4.523,1.27,3.47,-2.27,4.34
4.533,0.74,5.01,-2.39,5.60
4.543,0.29,6.42,-2.47,6.89
4.553,-0.20,7.14,-3.30,7.87
4.563,-0.54,7.00,-4.17,8.17
4.573,-0.58,6.78,-4.03,7.91
4.583,0.03,6.77,-3.32,7.54
4.593,1.50,6.75,-2.76,7.44
4.603,3.33,6.31,-3.07,7.77
4.613,5.03,5.11,-4.33,8.37
4.623,5.96,3.72,-4.99,8.62
4.633,5.99,2.60,-4.84,8.13
4.643,4.93,0.82,-5.26,7.26
4.653,3.20,-1.35,-5.75,6.72
4.663,1.41,-2.55,-4.93,5.73
4.673,-0.35,-2.54,-2.74,3.75
4.683,-1.42,-1.94,-0.88,2.56
4.693,-1.66,-2.04,-0.55,2.69
4.703,-1.31,-3.01,-0.94,3.41
4.713,-1.20,-3.51,-0.68,3.77
4.723,-1.21,-2.71,-0.52,3.02
4.733,-0.63,-0.86,0.15,1.08
4.743,0.32,1.18,0.44,1.30
4.753,1.24,3.14,-0.28,3.39
4.763,1.60,5.14,-0.74,5.43
4.773,1.01,6.50,-0.03,6.58
4.783,-0.17,6.30,1.59,6.50
4.793,-1.21,5.16,2.44,5.83
4.803,-1.81,3.32,2.87,4.74
4.813,-2.37,1.06,3.38,4.26
4.823,-3.39,-1.27,3.37,4.95
4.833,-4.19,-2.55,3.23,5.88
4.843,-4.15,-2.52,3.56,6.02
4.853,-3.50,-2.60,4.04,5.94
4.863,-2.61,-3.22,4.56,6.16
4.873,-1.91,-3.60,5.17,6.58
4.883,-1.43,-3.45,5.27,6.46
4.893,-1.21,-3.09,4.60,5.67
4.903,-1.28,-3.19,3.63,5.00
4.912,-1.58,-3.67,2.53,4.73
4.923,-2.14,-4.07,1.57,4.86
4.933,-3.00,-4.37,1.05,5.40
4.943,-3.63,-5.10,1.06,6.35
4.952,-3.53,-5.92,1.33,7.02
4.963,-2.98,-5.87,1.66,6.79
4.973,-2.52,-5.22,1.88,6.09
4.983,-2.22,-4.48,1.60,5.25
4.993,-1.95,-2.89,0.68,3.56
5.003,-1.52,-1.32,-0.58,2.10
5.013,-1.10,0.11,-1.81,2.12
5.022,-0.86,1.75,-2.72,3.35
5.032,-0.59,3.38,-3.50,4.91
5.043,-0.05,4.05,-4.25,5.88
5.052,0.57,4.94,-5.69,7.56
5.063,0.87,6.37,-5.88,8.71
5.072,0.97,7.17,-3.77,8.16
5.082,0.61,7.79,-2.29,8.14
5.092,0.11,7.83,-3.02,8.40
5.102,-0.34,7.37,-3.53,8.18
5.112,-0.22,7.58,-1.94,7.83
5.122,1.27,8.13,1.00,8.29
5.132,3.14,6.55,2.98,7.85
5.142,3.54,2.98,3.01,5.52
5.152,1.62,0.50,2.42,2.95
5.162,-1.43,-0.93,1.70,2.41
5.172,-3.97,-1.89,1.29,4.58
5.182,-5.35,-2.66,0.72,6.01
5.192,-5.57,-3.36,-0.12,6.50
5.202,-4.99,-3.56,-0.22,6.14
5.212,-3.26,-2.43,-0.86,4.16
5.222,-1.95,-1.56,-0.67,2.58
5.232,-1.12,-1.65,-0.35,2.03
5.242,-0.67,-1.24,-0.91,1.68
5.252,-0.90,-0.04,-0.29,0.95
5.262,-1.24,1.88,-0.39,2.29
5.272,-1.36,3.04,-0.26,3.34
5.282,-1.08,2.01,0.57,2.35
5.292,-0.62,-0.14,1.03,1.21
5.302,0.07,-2.34,0.83,2.49
5.312,0.67,-4.09,0.42,4.16
5.322,1.01,-5.05,0.28,5.15
5.332,1.33,-5.25,0.63,5.45
5.342,1.71,-4.99,1.06,5.38
5.352,2.08,-4.73,0.86,5.24
5.362,2.15,-4.72,0.37,5.19
5.372,1.94,-5.03,0.58,5.42
5.382,1.68,-5.51,1.59,5.98
5.392,1.44,-5.88,2.53,6.56
5.402,1.15,-6.09,2.82,6.81
5.412,0.62,-6.19,2.10,6.57
5.422,-0.32,-6.32,0.44,6.34
5.432,-1.40,-6.41,-1.11,6.65
5.442,-2.10,-6.27,-2.64,7.12
5.452,-2.12,-5.89,-4.24,7.56
5.462,-1.24,-5.27,-5.05,7.41
5.472,0.40,-3.79,-4.14,5.63
5.482,1.99,-1.28,-1.53,2.82
5.492,3.06,2.74,0.83,4.19
5.502,3.12,7.63,1.99,8.48
5.512,1.70,12.05,1.27,12.24
5.522,-0.46,13.78,-2.02,13.94
5.533,-1.80,13.89,-6.82,15.58
5.543,-1.08,14.08,-10.09,17.35
5.553,0.92,13.96,-10.56,17.53
5.563,2.26,12.74,-8.22,15.33
5.572,2.51,10.29,-5.37,11.88
5.582,2.68,8.35,-3.00,9.27
5.592,3.02,6.90,-2.76,8.02
5.602,3.16,4.59,-4.34,7.06
5.611,3.32,1.79,-5.75,6.88
5.622,3.63,0.39,-5.06,6.24
5.631,3.92,-0.57,-4.47,5.97
5.642,3.45,-2.32,-4.67,6.25
5.651,2.42,-3.86,-4.04,6.09
5.662,1.26,-4.68,-2.58,5.49
5.672,0.11,-5.06,-0.73,5.12
5.681,-0.90,-5.53,0.42,5.62
5.692,-1.57,-6.12,0.02,6.32
5.702,-2.00,-6.52,-0.38,6.83
5.711,-2.35,-6.12,-0.42,6.57
5.721,-2.51,-4.66,-0.39,5.31
5.732,-2.15,-2.13,-0.32,3.04
5.742,-1.51,0.72,0.07,1.67
5.751,-0.49,3.27,-0.07,3.31
5.761,0.26,5.35,0.14,5.36
5.772,0.50,6.45,0.92,6.53
5.781,0.21,6.30,2.32,6.71
5.791,-0.57,4.65,3.70,5.97
5.801,-1.02,2.55,4.25,5.06
5.811,-1.27,0.52,4.56,4.76
5.821,-1.40,-1.49,4.19,4.66
5.831,-1.31,-3.02,4.17,5.31
5.841,-1.34,-3.80,3.69,5.47
5.851,-1.54,-4.05,3.47,5.55
5.861,-1.61,-4.02,3.58,5.62
5.871,-1.63,-4.13,3.46,5.63
5.881,-1.61,-3.95,3.21,5.34
5.891,-1.70,-3.48,2.95,4.87
5.901,-1.96,-3.33,2.87,4.81
5.911,-2.21,-3.49,3.16,5.20
5.921,-2.34,-3.95,3.04,5.51
5.931,-2.43,-4.48,2.16,5.54
5.941,-2.70,-4.89,1.13,5.70
5.951,-3.04,-5.18,0.75,6.05
5.961,-3.31,-4.91,0.89,5.99
5.971,-3.31,-4.45,0.88,5.62
5.981,-2.96,-4.31,0.22,5.23
5.991,-2.38,-3.82,-0.82,4.57
6.001,-1.78,-2.74,-1.73,3.69
6.011,-1.30,-1.33,-2.95,3.49
6.021,-0.92,0.07,-4.47,4.57
6.031,-0.37,1.42,-5.57,5.76
6.041,0.60,3.05,-6.19,6.93
6.051,1.55,5.15,-5.96,8.03
6.061,1.48,6.63,-4.25,8.02
6.071,0.55,7.70,-2.40,8.08
6.081,-0.20,8.23,-1.70,8.41
6.091,-1.06,8.41,-1.53,8.62
6.101,-1.63,8.61,-0.96,8.82
6.111,-1.28,8.27,-0.69,8.40
6.121,-0.59,7.31,0.44,7.34
6.131,-0.13,6.00,2.39,6.46
6.141,0.03,4.41,2.90,5.28
6.151,0.08,3.05,2.41,3.89
6.161,0.10,2.05,2.01,2.87
6.171,0.02,0.92,0.82,1.23
6.181,-0.14,0.03,0.25,0.29
6.191,-0.42,-0.22,0.26,0.54
6.201,-0.59,-0.15,-0.12,0.62
6.211,-0.70,-0.21,0.16,0.75
6.221,-0.77,-0.63,0.43,1.08
6.231,-1.44,-1.58,0.70,2.25
6.241,-2.10,-2.00,0.38,2.93
6.251,-2.65,-1.83,1.17,3.43
6.261,-3.02,-1.61,1.37,3.68
6.271,-2.95,-1.82,0.94,3.59
6.281,-2.69,-2.55,0.67,3.76
6.291,-2.12,-3.50,0.23,4.10
6.301,-1.21,-4.40,-0.78,4.63
6.311,-0.14,-4.88,-0.87,4.96
6.321,1.01,-4.75,0.32,4.87
6.330,2.03,-4.36,1.52,5.05
6.341,2.40,-4.19,1.50,5.05
6.351,1.88,-4.12,0.71,4.58
6.361,1.28,-4.07,0.98,4.38
6.370,1.02,-4.22,2.07,4.81
6.381,0.68,-4.48,2.54,5.20
6.390,-0.09,-4.69,1.70,4.98
6.401,-1.19,-4.74,-0.84,4.96
6.411,-1.77,-4.81,-2.59,5.74
6.421,-1.27,-4.07,-2.71,5.05
6.430,-0.10,-3.00,-2.71,4.05
6.440,1.14,-1.70,-3.21,3.81
6.450,1.92,-0.21,-3.92,4.37
6.461,2.40,1.52,-3.60,4.59
6.470,3.04,3.65,-2.31,5.28
6.480,3.17,5.96,-2.10,7.07
6.490,2.63,7.60,-3.66,8.84
6.500,2.04,8.41,-5.39,10.19
6.510,1.30,9.03,-5.94,10.89
6.520,0.70,9.28,-5.39,10.75
6.530,0.63,9.19,-4.14,10.10
6.540,1.28,8.49,-3.14,9.14
6.550,2.69,7.36,-2.50,8.23
6.560,4.41,6.13,-3.14,8.18
6.570,5.58,4.58,-3.70,8.12
6.580,5.91,2.13,-4.59,7.78
6.590,5.12,0.20,-3.85,6.41
6.600,3.67,-1.32,-3.05,4.95
6.610,2.02,-2.63,-2.96,4.45
6.620,0.41,-3.25,-2.39,4.06
6.630,-1.05,-3.27,-1.35,3.69
6.640,-2.06,-3.35,-0.42,3.95
6.650,-2.39,-3.77,0.14,4.46
6.660,-2.39,-4.18,0.14,4.82
6.670,-2.31,-4.49,-0.20,5.06
6.680,-2.05,-4.34,-0.23,4.81
6.690,-1.66,-3.30,0.23,3.70
6.700,-0.67,-1.66,0.55,1.87
6.710,0.36,-0.37,0.85,1.00
6.720,1.14,1.07,0.62,1.68
6.730,1.46,2.61,0.62,3.06
6.740,1.05,3.53,1.39,3.93
6.750,0.09,3.50,2.80,4.48
6.760,-1.11,3.03,4.37,5.43
6.770,-1.84,2.11,4.71,5.48
6.780,-2.05,0.57,3.96,4.49
6.790,-2.20,-0.97,3.54,4.28
6.800,-2.51,-2.47,2.88,4.55
6.810,-2.80,-2.98,2.25,4.67
6.820,-2.56,-2.35,2.64,4.37
6.830,-1.73,-1.89,3.27,4.16
6.840,-0.53,-1.82,3.65,4.11
6.850,0.63,-1.84,3.44,3.95
6.860,1.14,-1.91,2.62,3.44
6.870,0.57,-1.94,1.40,2.45
6.880,-0.66,-2.14,0.76,2.36
6.890,-1.95,-2.23,1.03,3.14
6.900,-2.93,-2.41,1.45,4.06
6.909,-3.58,-2.92,1.65,4.91
6.919,-4.11,-3.55,1.70,5.69
6.929,-4.57,-4.17,1.68,6.41
6.940,-4.57,-4.67,1.44,6.69
6.950,-3.99,-5.08,1.19,6.57
6.960,-3.07,-5.15,1.13,6.10
6.969,-2.00,-4.66,0.72,5.12
6.980,-0.92,-3.59,-0.15,3.71
6.990,0.10,-2.16,-1.27,2.51
7.000,1.09,-0.67,-2.36,2.68
7.010,1.96,0.87,-3.04,3.72
7.019,2.70,2.68,-3.82,5.39
7.029,3.74,3.82,-5.39,7.59
7.039,4.86,5.17,-5.83,9.19
7.049,5.26,7.17,-4.86,10.13
7.059,4.11,8.56,-2.78,9.89
7.069,2.00,9.47,-2.39,9.97
7.079,-0.58,8.95,-3.33,9.56
7.089,-3.34,7.17,-2.33,8.25
7.099,-4.64,5.66,-0.60,7.34
7.109,-3.84,4.93,0.12,6.25
7.120,-1.50,4.71,0.75,5.00
7.129,0.54,4.13,2.06,4.64
7.140,1.35,2.30,2.76,3.84
7.149,0.86,0.54,2.34,2.55
7.160,-0.46,-0.43,1.89,1.99
7.169,-1.73,-1.19,1.41,2.53
7.179,-2.48,-1.78,0.96,3.20
7.189,-2.77,-2.08,0.60,3.51
7.199,-2.66,-1.91,-0.30,3.29
7.209,-2.17,-1.21,-0.51,2.53
7.219,-1.04,0.08,-0.17,1.05
7.229,-0.51,0.94,-0.08,1.08
7.239,-0.11,1.38,0.36,1.43
7.249,-0.06,1.26,0.29,1.29
7.259,-0.45,0.95,0.63,1.23
7.269,-0.88,0.75,0.39,1.22
7.279,-1.13,0.27,-0.51,1.26
7.289,-1.04,-0.60,-0.18,1.21
7.299,-0.61,-1.34,1.19,1.89
7.309,0.11,-2.00,1.34,2.41
7.319,0.63,-2.63,0.41,2.74
7.329,0.60,-3.10,-0.14,3.16
7.339,0.18,-3.30,0.34,3.32
7.349,-0.01,-3.57,0.92,3.69
7.359,-0.05,-3.94,0.99,4.06
7.369,-0.03,-4.08,1.30,4.29
7.379,0.13,-4.18,1.70,4.51
7.389,0.20,-4.36,1.56,4.64
7.399,-0.04,-4.65,0.59,4.69
7.409,-0.69,-5.13,-1.05,5.28
7.419,-1.29,-5.23,-1.99,5.75
7.429,-1.14,-4.81,-1.87,5.29
7.439,-0.32,-4.16,-1.82,4.56
7.449,0.12,-3.56,-2.11,4.14
7.459,-0.10,-3.33,-2.41,4.11
7.469,-0.14,-2.88,-2.87,4.07
7.479,0.54,-1.62,-2.28,2.85
7.489,1.35,0.45,-0.93,1.70
7.499,1.29,2.52,-1.24,3.09
7.509,0.37,4.11,-3.04,5.13
7.519,-0.16,5.86,-3.94,7.06
7.529,0.14,7.47,-4.75,8.86
7.539,0.57,8.32,-5.79,10.15
7.548,0.98,8.72,-6.29,10.80
7.559,1.65,8.58,-5.58,10.36
7.569,2.80,7.21,-4.15,8.78
7.579,4.32,4.68,-4.03,7.54
7.589,5.33,2.04,-5.53,7.95
7.599,4.99,0.63,-5.26,7.28
7.609,4.34,0.44,-3.81,5.79
7.619,3.98,0.22,-3.05,5.02
7.629,3.81,-0.60,-3.05,4.92
7.639,3.50,-1.98,-3.50,5.33
7.648,2.78,-3.18,-3.53,5.51
7.659,1.79,-3.49,-2.45,4.63
7.669,1.06,-3.16,-0.96,3.47
7.679,0.40,-2.84,-0.11,2.87
7.689,-0.25,-2.88,0.05,2.89
7.699,-0.45,-2.65,-0.13,2.69
7.709,-0.59,-1.97,0.10,2.06
7.718,-0.72,-0.72,0.46,1.12
7.728,-0.45,1.32,0.07,1.40
7.739,0.06,3.53,-0.61,3.59
7.748,0.35,5.36,-0.43,5.39
7.759,0.29,6.14,0.55,6.17
7.768,0.02,5.35,1.58,5.58
7.779,-0.13,3.48,2.07,4.05
7.788,-0.36,1.54,2.88,3.29
7.798,-0.70,-0.29,3.31,3.40
7.808,-1.40,-1.44,3.38,3.93
7.819,-2.47,-1.96,2.83,4.24
7.828,-2.74,-1.18,3.03,4.25
7.838,-2.43,-0.68,3.47,4.29
7.848,-1.61,-0.93,3.47,3.94
7.858,-0.58,-1.40,3.14,3.48
7.868,0.22,-1.74,2.99,3.47
7.878,0.41,-1.64,3.00,3.45
7.888,-0.01,-1.26,3.04,3.29
7.898,-0.72,-1.13,3.43,3.69
7.908,-1.38,-1.58,3.83,4.37
7.918,-1.98,-2.19,3.59,4.65
7.928,-2.62,-2.87,2.55,4.65
7.938,-3.24,-3.92,1.16,5.21
7.948,-3.63,-5.09,0.05,6.26
7.958,-3.90,-5.79,-0.46,6.99
7.968,-4.04,-5.52,-0.09,6.85
7.978,-3.52,-4.70,-0.44,5.88
7.988,-2.48,-3.49,-1.09,4.42
7.998,-1.51,-1.88,-1.90,3.07
8.008,-0.92,-0.36,-3.13,3.28
8.018,-0.79,0.31,-4.01,4.10
8.028,-0.77,0.46,-4.01,4.11
8.038,0.10,1.84,-4.44,4.81
8.048,1.00,4.06,-3.53,5.48
8.058,1.21,6.40,-2.05,6.83
8.068,0.52,8.06,-1.25,8.17
8.078,-0.59,8.54,-2.29,8.87
8.088,-1.56,7.89,-3.40,8.73
8.098,-1.81,5.91,-2.46,6.65
8.108,-0.87,4.02,-1.28,4.30
8.118,0.59,3.20,0.21,3.26
8.128,1.49,2.69,2.29,3.83
8.138,1.13,1.63,2.88,3.50
8.148,-0.18,0.37,3.15,3.18
8.158,-1.76,-0.37,3.09,3.58
8.168,-2.89,-0.99,2.14,3.73
8.178,-3.25,-1.30,0.95,3.63
8.188,-3.06,-1.10,0.22,3.26
8.198,-2.45,-0.24,-0.06,2.46
8.208,-1.65,0.78,-0.24,1.84
8.218,-0.91,1.70,0.36,1.96
8.228,-0.36,2.00,0.12,2.04
8.238,-0.24,1.91,0.02,1.93
8.248,-0.44,1.81,0.53,1.94
8.258,-1.02,1.61,1.12,2.21
8.268,-1.36,1.62,1.10,2.39
8.278,-1.71,1.56,0.70,2.42
8.288,-1.78,0.99,0.60,2.13
8.298,-1.53,0.18,0.49,1.61
8.307,-1.10,-0.91,0.30,1.46
8.318,-0.75,-2.12,0.45,2.29
8.327,-0.40,-2.89,0.58,2.97
8.338,-0.08,-3.31,0.38,3.33
8.348,0.17,-3.46,0.37,3.48
8.358,0.43,-3.34,0.46,3.40
8.368,0.67,-3.13,0.59,3.26
8.378,0.80,-3.15,1.41,3.55
8.388,0.45,-3.77,1.57,4.11
8.398,-0.52,-4.76,0.35,4.80
8.407,-1.01,-5.26,-0.24,5.37
8.417,-0.99,-5.02,-0.74,5.17
8.427,-0.81,-4.69,-2.04,5.18
8.437,-0.38,-4.32,-3.17,5.37
8.447,0.21,-4.10,-3.60,5.46
8.457,1.09,-4.11,-3.33,5.40
8.467,2.08,-3.74,-2.70,5.05
8.477,2.87,-3.16,-2.76,5.08
8.487,3.17,-2.31,-3.23,5.08
8.497,3.24,-0.69,-3.21,4.62
8.507,3.45,1.58,-2.62,4.61
8.518,3.58,3.87,-2.27,5.73
8.527,3.19,5.95,-2.92,7.35
8.537,2.48,7.45,-4.42,9.01
8.547,2.48,8.82,-5.57,10.72
8.557,3.49,9.46,-5.41,11.44
8.567,4.71,8.51,-4.79,10.84
8.577,5.64,6.84,-4.22,9.81
8.587,5.65,4.37,-3.74,8.05
8.597,4.58,1.41,-4.46,6.55
8.607,2.98,-0.64,-4.83,5.71
8.617,1.33,-1.19,-4.21,4.57
8.627,0.06,-1.08,-3.54,3.70
8.637,-0.72,-1.12,-3.23,3.49
8.647,-1.07,-1.60,-3.08,3.63
8.657,-1.05,-2.29,-2.49,3.54
8.667,-1.06,-2.71,-1.96,3.51
8.677,-1.21,-2.76,-1.41,3.32
8.687,-1.29,-1.85,-0.68,2.36
8.697,-1.45,-0.44,-0.31,1.55
8.707,-1.48,0.87,0.01,1.72
8.717,-1.28,2.08,0.47,2.48
8.727,-0.60,3.46,-0.27,3.53
8.737,0.14,4.76,-0.63,4.81
8.747,0.42,5.56,0.17,5.58
8.757,-0.03,5.22,1.46,5.42
8.767,-0.86,3.92,2.44,4.69
8.777,-1.07,2.08,2.28,3.26
8.787,-1.13,0.29,3.03,3.25
8.797,-1.64,-1.31,3.54,4.12
8.807,-2.65,-2.04,3.44,4.80
8.817,-3.39,-1.30,4.08,5.46
8.827,-3.66,-0.88,4.63,5.96
8.837,-3.41,-1.43,4.82,6.08
8.847,-2.86,-2.39,4.83,6.11
8.857,-2.28,-3.22,4.56,6.03
8.867,-2.01,-3.82,4.25,6.06
8.877,-2.06,-3.75,3.79,5.72
8.887,-2.21,-3.25,3.15,5.04
8.897,-2.17,-2.75,3.15,4.71
8.907,-1.86,-2.56,3.65,4.83
8.917,-1.17,-2.38,3.17,4.13
8.927,-0.38,-2.47,2.25,3.36
8.937,-0.01,-3.15,0.73,3.23
8.947,-0.46,-3.52,-0.77,3.64
8.957,-1.30,-3.44,-0.87,3.78
8.967,-1.82,-3.19,-0.70,3.74
8.977,-2.12,-2.44,-1.23,3.46
8.987,-2.42,-1.45,-1.91,3.41
8.997,-2.58,-0.34,-2.93,3.92
9.007,-2.76,0.51,-3.82,4.74
9.017,-3.03,1.10,-3.19,4.54
9.027,-2.82,2.37,-2.97,4.74
9.037,-1.68,4.69,-4.28,6.57
9.047,-0.67,6.90,-3.83,7.92
9.057,0.18,8.10,-3.22,8.72
9.067,1.27,8.29,-4.62,9.58
9.077,1.88,8.60,-3.48,9.47
9.086,2.36,8.23,-0.78,8.60
9.097,2.96,5.80,1.30,6.64
9.106,2.87,3.13,2.52,4.94
9.116,1.64,1.60,1.83,2.93
9.126,-0.03,0.36,1.02,1.08
9.137,-1.71,-0.64,0.91,2.04
9.146,-3.04,-1.27,1.07,3.47
9.156,-3.74,-1.46,0.95,4.12
9.166,-3.74,-1.02,0.34,3.90
9.176,-3.22,0.02,-0.23,3.23
9.186,-2.19,0.96,-0.39,2.42
9.196,-1.25,1.39,-0.23,1.89
9.206,-0.57,1.63,0.40,1.78
9.216,-0.52,1.23,0.49,1.42
9.226,-0.70,0.57,0.57,1.06
9.236,-0.96,-0.10,1.12,1.48
9.246,-1.41,-0.14,1.24,1.88
9.256,-1.94,0.04,0.67,2.05
9.266,-2.26,0.02,0.14,2.27
9.276,-2.15,-0.49,0.30,2.23
9.286,-1.68,-1.24,-0.02,2.09
9.296,-1.12,-2.22,0.03,2.49
9.306,-0.59,-3.21,0.68,3.34
9.316,-0.08,-3.78,1.08,3.93
9.326,0.36,-4.05,0.90,4.16
9.336,0.68,-4.29,0.55,4.37
9.346,0.84,-4.51,0.32,4.60
9.356,0.73,-4.85,0.55,4.94
9.366,0.42,-5.21,0.98,5.32
9.376,0.09,-5.37,1.22,5.51
9.386,-0.06,-5.45,1.21,5.58
9.396,-0.05,-5.42,0.13,5.42
9.406,0.04,-5.32,-1.59,5.55
9.416,0.57,-5.35,-1.79,5.68
9.426,1.76,-5.10,-0.97,5.49
9.436,2.90,-4.93,-0.44,5.74
9.446,3.15,-5.27,-0.91,6.21
9.456,2.46,-5.76,-1.73,6.50
9.466,1.92,-5.54,-2.29,6.30
9.476,1.84,-4.12,-2.31,5.07
9.486,2.11,-2.45,-2.14,3.88
9.496,2.42,-0.29,-1.95,3.12
9.506,2.36,2.63,-1.42,3.81
9.516,1.93,5.99,-1.15,6.40
9.526,1.27,9.35,-1.25,9.52
9.536,0.11,11.46,-2.18,11.66
9.546,-1.21,11.95,-4.81,12.94
9.557,-1.92,12.14,-6.87,14.08
9.566,-1.82,12.24,-7.13,14.28
9.576,-1.13,12.07,-6.35,13.69
9.587,-0.21,11.53,-4.98,12.56
9.596,1.04,9.85,-3.09,10.37
9.606,2.59,6.45,-3.02,7.58
9.616,3.71,3.06,-4.42,6.53
9.626,3.79,0.41,-5.93,7.05
9.636,3.01,-1.37,-6.02,6.87
9.646,2.30,-1.97,-4.97,5.82
9.656,2.10,-2.29,-3.96,5.03
9.665,2.20,-2.97,-3.13,4.84
9.676,2.05,-4.09,-2.40,5.17
9.686,1.45,-5.12,-0.95,5.41
9.696,0.60,-5.66,0.40,5.71
9.706,-0.30,-5.94,0.65,5.98
9.716,-0.98,-5.99,0.09,6.07
9.726,-1.50,-5.16,-0.52,5.39
9.736,-1.84,-3.48,-0.93,4.04
9.745,-1.58,-1.15,-1.15,2.27
9.755,-1.52,0.98,-0.57,1.90
9.765,-1.06,2.83,-0.29,3.04
9.776,-0.41,5.06,-0.62,5.11
9.786,0.36,7.18,-0.76,7.23
9.796,0.75,8.02,0.55,8.08
9.806,0.23,7.09,2.80,7.62
9.815,-0.38,4.37,3.97,5.92
9.825,-0.41,1.91,4.51,4.92
9.835,-0.59,-0.27,5.05,5.09
9.845,-0.88,-2.18,4.93,5.46
9.855,-1.49,-3.79,3.75,5.54
9.865,-2.25,-4.41,3.11,5.84
9.875,-2.62,-3.95,3.10,5.66
9.885,-2.49,-3.71,2.69,5.22
9.895,-2.09,-3.64,2.44,4.85
9.905,-1.94,-3.25,2.65,4.62
9.915,-2.10,-2.50,2.75,4.26
9.925,-2.59,-1.94,2.81,4.28
9.935,-3.10,-1.82,3.09,4.74
9.945,-3.30,-1.79,3.61,5.21
9.955,-3.12,-1.99,3.53,5.11
9.965,-2.53,-2.27,2.07,3.98
9.975,-1.89,-2.75,0.58,3.39
9.985,-1.38,-3.27,-0.39,3.57
9.995,-1.23,-3.42,-0.93,3.76
10.005,-1.62,-3.86,-1.18,4.35
10.015,-2.30,-4.47,-1.79,5.34
10.025,-3.04,-4.30,-3.00,6.06
10.035,-3.21,-4.10,-3.93,6.52
10.045,-2.58,-3.29,-4.87,6.42
10.055,-1.37,-1.73,-4.57,5.07
10.065,-0.34,0.06,-3.42,3.44
10.075,-0.17,2.71,-2.76,3.87
10.085,-0.22,5.90,-2.03,6.24
10.095,0.46,7.93,-2.65,8.38
10.105,1.95,9.30,-4.17,10.37
10.115,3.09,10.35,-2.30,11.05
10.125,4.12,9.43,0.80,10.32
10.135,4.31,5.40,2.37,7.30
10.145,2.68,2.29,2.32,4.22
10.155,0.06,0.69,1.77,1.90
10.165,-2.24,-0.19,1.72,2.83
10.175,-3.60,-0.55,1.83,4.07
10.185,-3.81,-0.38,0.98,3.95
10.195,-3.21,0.44,0.08,3.24
10.205,-2.38,1.42,0.21,2.78
10.215,-1.53,2.16,0.17,2.65
10.225,-0.90,2.71,-0.38,2.88
10.235,-0.40,2.87,-0.46,2.93
10.245,-0.17,2.19,0.34,2.22
10.255,0.09,0.97,0.95,1.36
10.265,0.18,0.35,0.65,0.76
10.275,-0.10,0.59,0.46,0.75
10.285,-0.58,1.00,1.03,1.55
10.295,-1.05,0.84,0.66,1.50
10.305,-1.51,-0.02,0.64,1.64
10.315,-1.43,-1.15,1.05,2.12
10.325,-0.85,-2.13,0.96,2.48
10.335,-0.51,-3.24,0.46,3.31
10.345,-0.64,-4.17,-0.38,4.23
10.355,-0.87,-4.59,-0.98,4.78
10.365,-0.71,-4.45,-0.19,4.51
10.374,0.06,-4.00,0.57,4.04
10.385,0.79,-4.07,0.59,4.19
10.395,0.96,-4.79,0.03,4.89
10.405,0.40,-5.48,-1.16,5.62
10.415,-0.35,-5.98,-1.27,6.12
10.425,-0.00,-5.72,-0.54,5.75
10.435,0.71,-4.99,-1.07,5.15
10.445,1.30,-4.43,-1.18,4.77
10.454,1.73,-4.03,-0.87,4.47
10.464,1.95,-3.81,-0.91,4.38
10.474,2.28,-3.40,-0.53,4.13
10.485,2.14,-2.60,-0.54,3.41
10.494,1.29,-1.89,-0.67,2.38
10.504,0.22,-1.05,-0.98,1.45
10.514,-0.62,0.24,-2.41,2.50
10.524,-1.00,1.79,-3.70,4.23
10.534,-0.64,3.52,-3.81,5.23
10.544,-0.04,5.35,-3.73,6.53
10.554,0.22,7.14,-3.44,7.93
10.564,0.38,8.62,-2.67,9.03
10.574,0.39,8.89,-2.25,9.18
10.584,0.03,7.62,-2.23,7.94
10.594,-0.71,5.94,-2.04,6.32
10.604,-1.47,4.67,-1.79,5.21
10.614,-0.02,3.55,-1.44,3.83
10.624,3.40,3.43,-2.70,5.54
10.634,5.39,3.57,-4.19,7.71
10.644,5.57,3.13,-4.25,7.67
10.654,4.90,1.93,-3.02,6.07
10.664,3.60,0.71,-2.58,4.48
10.674,2.32,-0.55,-2.87,3.73
10.684,1.52,-2.63,-2.97,4.25
10.694,1.05,-4.63,-2.21,5.24
10.704,0.87,-5.94,-0.98,6.08
10.714,0.73,-6.50,0.30,6.55
10.724,0.54,-6.37,1.40,6.55
10.734,0.29,-5.60,1.49,5.81
10.744,-0.01,-4.52,0.78,4.58
10.754,-0.18,-3.19,0.06,3.20
10.764,0.09,-1.84,-0.48,1.91
10.774,0.61,-0.62,-0.81,1.19
10.784,1.06,0.39,-0.81,1.39
10.794,1.36,1.29,-0.19,1.88
10.804,1.91,2.32,0.73,3.09
10.814,2.44,3.23,1.76,4.41
10.824,2.29,3.72,2.61,5.09
10.834,1.28,3.67,3.01,4.92
10.844,-0.05,3.24,3.53,4.79
10.854,-1.17,2.42,4.08,4.88
10.864,-1.89,1.18,4.20,4.75
10.874,-2.39,-0.15,4.02,4.69
10.884,-2.69,-1.30,3.44,4.56
10.894,-2.82,-1.91,2.87,4.46
10.904,-2.74,-1.93,2.62,4.25
10.914,-2.19,-1.87,2.40,3.75
10.924,-1.15,-1.99,2.30,3.25
10.934,-0.07,-2.05,2.34,3.11
10.944,0.67,-2.01,2.48,3.26
10.954,0.87,-2.02,2.31,3.19
10.964,0.52,-1.77,2.09,2.78
10.974,-0.08,-1.47,2.01,2.49
10.984,-0.60,-1.43,2.13,2.64
10.994,-1.07,-1.52,2.27,2.93
11.003,-1.40,-1.74,2.20,3.13
11.014,-1.49,-1.97,2.00,3.18
11.024,-1.47,-2.13,1.84,3.18
11.034,-1.38,-2.38,1.73,3.25
11.044,-1.16,-2.76,1.50,3.35
11.054,-0.91,-3.13,1.07,3.43
11.064,-0.57,-3.52,0.62,3.62
11.074,-0.17,-4.06,-0.42,4.08
11.084,0.16,-4.86,-2.27,5.36
11.094,0.47,-5.38,-3.90,6.67
11.104,0.91,-5.88,-5.20,7.90
11.114,1.74,-6.32,-6.70,9.37
11.124,3.21,-5.47,-7.65,9.94
11.134,4.84,-3.26,-6.86,9.00
11.144,5.39,-0.44,-4.76,7.20
11.153,5.88,2.69,0.81,6.51
11.163,7.46,5.94,3.17,10.05
11.173,8.94,7.87,1.84,12.05
11.183,9.72,8.06,-0.11,12.63
11.193,8.47,7.68,3.38,11.92
11.203,5.17,7.67,8.85,12.80
11.213,1.34,6.32,5.61,8.55
11.223,-0.54,3.85,0.81,3.97
11.233,-2.53,1.65,0.79,3.12
11.243,-4.90,-0.04,3.37,5.95
11.253,-5.85,-0.90,4.57,7.48
11.263,-5.31,-0.17,3.29,6.25
11.273,-4.12,1.78,1.29,4.67
11.283,-3.46,3.69,0.40,5.07
11.293,-3.59,4.95,0.44,6.13
11.303,-3.92,4.80,0.19,6.20
11.313,-4.34,3.43,-0.20,5.54
11.323,-4.26,1.62,-0.83,4.63
11.333,-3.27,0.55,-1.42,3.61
11.343,-2.19,0.48,-1.25,2.57
11.353,-1.42,0.71,-0.45,1.65
11.363,-1.55,0.56,0.87,1.87
11.373,-1.59,0.03,-0.29,1.61
11.383,-1.29,-0.66,-1.39,2.01
11.393,-0.50,-1.21,-1.57,2.04
11.403,0.40,-1.53,-1.11,1.93
11.413,1.17,-1.57,-1.19,2.29
11.423,1.77,-1.70,-1.37,2.81
11.433,2.32,-1.74,-1.50,3.26
11.443,2.79,-1.54,-1.40,3.48
11.453,3.23,-1.18,-1.25,3.66
11.463,3.55,-0.98,-0.66,3.74
11.473,3.53,-0.90,0.09,3.64
11.483,2.90,-1.01,0.31,3.08
11.493,1.81,-0.93,-0.16,2.04
11.503,0.95,-0.65,-0.90,1.46
11.513,0.74,-0.40,-1.48,1.70
11.523,1.03,-0.18,-1.96,2.22
11.533,1.30,-0.15,-1.70,2.14
11.543,1.43,-0.26,-1.78,2.29
11.553,1.67,-0.62,-2.16,2.80
11.563,1.56,-1.64,-1.77,2.87
11.573,1.00,-2.70,-1.95,3.48
11.583,0.32,-3.40,-2.42,4.18
11.593,-0.36,-3.91,-2.67,4.75
11.603,-0.77,-4.19,-3.13,5.29
11.613,-0.91,-4.22,-3.49,5.55
11.623,-0.93,-4.06,-3.63,5.53
11.633,-0.43,-3.88,-3.67,5.36
11.643,0.54,-3.98,-3.44,5.29
11.653,1.59,-3.98,-3.02,5.24
11.663,2.60,-3.19,-2.47,4.80
11.673,3.49,-1.53,-2.21,4.41
11.682,3.19,0.00,-2.11,3.82
11.693,2.29,0.81,-1.77,3.01
11.703,2.23,1.15,-1.35,2.85
11.713,2.44,1.60,-1.46,3.26
11.723,2.64,1.99,-1.07,3.48
11.733,2.53,2.08,-0.55,3.32
11.743,2.20,2.09,-0.57,3.09
11.753,1.65,2.63,-0.49,3.14
11.762,1.10,3.78,-0.77,4.01
11.773,0.90,4.89,-1.91,5.32
11.782,1.37,5.52,-3.24,6.55
11.792,2.01,5.82,-1.66,6.38
11.803,3.18,6.70,0.77,7.45
11.813,4.61,7.94,2.45,9.51
11.823,5.38,7.94,4.32,10.52
11.832,5.71,7.18,4.29,10.13
11.842,5.95,5.68,3.76,9.04
11.852,5.73,2.85,4.68,7.93
11.863,5.19,0.22,4.55,6.91
11.872,4.48,-1.71,3.10,5.71
11.882,3.25,-3.08,1.45,4.70
11.892,1.50,-3.94,-0.80,4.29
11.902,-0.50,-2.55,-1.09,2.82
11.912,-2.23,0.14,-0.25,2.25
11.922,-3.16,1.62,0.56,3.59
11.932,-3.12,1.14,1.30,3.57
11.942,-2.87,-0.04,2.18,3.61
11.952,-2.52,-1.18,2.50,3.74
11.962,-2.29,-2.01,2.58,4.00
11.972,-2.27,-2.26,2.87,4.30
11.982,-2.30,-2.08,3.20,4.46
11.992,-2.13,-1.71,3.17,4.18
12.002,-1.69,-1.56,2.79,3.62
12.012,-1.32,-1.50,2.66,3.33
12.022,-1.15,-1.38,2.41,3.01
12.032,-1.07,-1.56,1.83,2.63
12.042,-1.08,-2.14,1.29,2.72
12.052,-1.12,-2.78,0.93,3.13
12.062,-0.92,-3.81,0.64,3.97
12.072,-0.50,-4.25,0.30,4.29
12.082,-0.04,-3.97,-0.11,3.97
12.092,0.61,-3.47,-0.42,3.55
12.102,1.22,-2.22,-0.28,2.55
12.112,1.77,-0.89,-0.38,2.02
12.122,2.44,0.01,-0.89,2.60
12.132,3.24,0.98,-1.68,3.78
12.142,4.09,1.76,-2.81,5.27
12.152,5.02,2.05,-4.51,7.05
12.162,6.37,2.83,-5.94,9.15
12.172,7.73,4.79,-6.26,11.05
12.182,8.26,7.04,-5.62,12.23
12.192,7.57,7.58,-3.40,11.24
12.202,5.10,6.04,-0.90,7.96
12.212,2.06,3.23,-0.98,3.95
12.222,-0.61,1.75,0.28,1.87
12.232,-2.77,1.27,1.50,3.40
12.242,-4.21,0.95,0.70,4.37
12.252,-4.44,0.96,0.07,4.55
12.262,-3.61,1.80,-0.18,4.03
12.272,-2.04,3.14,-0.04,3.75
12.282,-0.33,4.25,1.06,4.39
12.292,1.00,5.04,2.09,5.55
12.302,1.46,4.81,1.87,5.36
12.312,0.50,2.94,1.15,3.20
12.322,-1.02,1.15,1.00,1.83
12.332,-2.19,0.14,1.11,2.46
12.342,-2.84,-0.24,1.16,3.07
12.352,-3.07,-0.13,1.15,3.28
12.361,-2.84,0.03,0.70,2.92
12.371,-2.12,-0.03,0.12,2.13
12.382,-1.44,-0.05,0.55,1.54
12.391,-1.02,0.42,1.06,1.53
12.402,-0.45,0.64,0.86,1.17
12.412,-0.08,0.66,0.99,1.19
12.422,0.23,0.41,1.21,1.30
12.432,0.46,-0.39,1.56,1.67
12.442,0.61,-1.33,1.28,1.95
12.452,0.71,-2.03,0.76,2.28
12.461,0.67,-2.34,0.48,2.48
12.472,0.47,-2.30,-0.06,2.35
12.482,0.27,-2.25,0.00,2.26
12.492,0.41,-2.26,0.47,2.34
12.501,0.84,-2.30,0.54,2.51
12.512,1.04,-2.76,0.31,2.97
12.521,0.82,-3.50,-0.16,3.60
12.531,0.26,-4.09,-0.79,4.17
12.541,-0.21,-4.48,-1.11,4.62
12.552,0.05,-4.56,-0.32,4.57
12.561,1.00,-4.28,0.43,4.42
12.571,1.52,-3.95,-0.21,4.24
12.581,1.32,-3.63,-1.26,4.06
12.591,0.98,-3.52,-1.79,4.07
12.601,1.01,-3.04,-2.21,3.89
12.611,1.27,-2.20,-2.50,3.57
12.621,1.58,-1.11,-3.13,3.68
12.631,1.97,0.42,-3.47,4.02
12.641,2.49,2.47,-3.25,4.78
12.651,2.82,4.46,-2.59,5.88
12.661,2.90,6.08,-2.11,7.06
12.671,2.79,7.24,-2.49,8.15
12.681,2.48,7.83,-3.13,8.79
12.691,2.28,8.02,-2.97,8.85
12.701,2.70,7.72,-2.07,8.43
12.711,3.72,6.60,-0.96,7.63
12.721,5.17,5.24,-0.25,7.36
12.731,6.82,3.58,-0.75,7.74
12.741,7.24,1.17,-2.90,7.89
12.751,5.77,-1.46,-5.56,8.15
12.761,3.34,-2.80,-5.52,7.04
12.771,1.33,-2.92,-4.27,5.34
12.781,-0.01,-2.77,-3.36,4.36
12.791,-0.72,-2.85,-2.93,4.15
12.801,-1.18,-3.34,-2.37,4.27
12.811,-1.32,-4.11,-1.36,4.53
12.821,-1.44,-4.27,0.05,4.51
12.831,-1.46,-3.63,0.43,3.93
12.841,-1.40,-2.58,0.51,2.98
12.851,-0.72,-1.19,0.09,1.39
12.861,0.44,0.39,0.16,0.61
12.871,1.76,1.55,0.88,2.51
12.881,3.36,2.72,0.99,4.43
12.891,4.22,3.88,1.72,5.99
12.901,3.78,5.10,2.65,6.88
12.911,1.96,6.12,3.75,7.44
12.921,0.12,6.06,3.99,7.26
12.931,-0.72,4.80,3.34,5.90
12.941,-1.71,2.48,2.93,4.21
12.951,-2.96,0.16,2.78,4.06
12.961,-3.77,-0.97,2.90,4.85
12.971,-3.69,-1.43,3.23,5.11
12.981,-2.92,-2.03,3.30,4.85
12.991,-1.99,-2.61,3.45,4.76
13.001,-1.50,-2.72,4.08,5.12
13.011,-1.42,-2.01,4.28,4.94
13.021,-1.56,-1.21,4.19,4.63
13.031,-1.92,-0.66,4.09,4.57
13.041,-2.21,-0.60,3.99,4.60
13.051,-2.33,-1.28,4.03,4.82
13.060,-2.43,-2.42,3.23,4.71
13.071,-2.60,-3.87,1.14,4.80
13.081,-2.76,-4.72,-0.62,5.50
13.090,-2.92,-4.50,-0.79,5.42
13.101,-3.14,-4.34,0.16,5.35
13.110,-3.17,-4.31,0.12,5.35
13.121,-2.92,-4.02,-0.92,5.05
13.131,-2.28,-3.21,-1.97,4.40
13.140,-1.59,-2.02,-2.67,3.71
13.150,-1.21,-0.84,-3.27,3.59
13.160,-0.63,-0.24,-4.21,4.27
13.170,0.72,1.00,-5.42,5.56
13.180,2.48,3.80,-4.84,6.63
13.190,3.32,6.68,-2.47,7.85
13.200,2.83,9.00,-1.44,9.54
13.210,2.79,9.24,-4.00,10.45
13.220,2.62,8.46,-3.40,9.49
13.230,1.95,7.14,1.34,7.52
13.240,2.18,5.24,2.11,6.06
13.250,1.98,3.25,2.12,4.36
13.260,0.35,1.71,2.79,3.29
13.270,-1.85,0.18,2.10,2.80
13.280,-3.63,-0.90,1.55,4.05
13.290,-4.52,-1.07,1.62,4.92
13.300,-4.60,-0.77,1.85,5.02
13.310,-4.10,0.06,1.25,4.29
13.320,-3.16,1.21,0.75,3.47
13.330,-1.80,2.04,0.57,2.78
13.340,-0.52,2.46,0.36,2.54
13.350,0.40,2.46,0.17,2.50
13.360,0.80,1.96,0.91,2.30
13.370,0.88,0.86,1.63,2.04
13.380,0.76,0.26,1.28,1.51
13.390,0.43,0.49,1.07,1.25
13.400,0.01,0.92,1.39,1.67
13.410,-0.28,0.84,1.48,1.72
13.420,-0.57,0.22,1.38,1.51
13.430,-0.74,-0.51,1.03,1.37
13.440,-0.51,-1.25,0.92,1.63
13.450,-0.38,-1.89,1.70,2.57
13.460,-0.12,-2.03,1.44,2.49
13.470,-0.16,-2.30,0.82,2.45
13.480,-0.44,-2.64,0.77,2.79
13.490,-0.54,-3.29,0.70,3.41
13.500,-0.74,-3.83,0.37,3.91
13.510,-0.99,-4.08,0.21,4.20
13.520,-0.88,-4.10,0.13,4.20
13.530,-0.39,-3.62,0.07,3.65
13.540,-0.06,-3.12,-0.88,3.24
13.550,0.11,-2.97,-2.33,3.78
13.560,0.64,-2.62,-2.79,3.88
13.570,1.66,-2.17,-2.49,3.70
13.580,2.75,-1.87,-2.25,4.02
13.590,3.48,-1.35,-2.23,4.35
13.600,3.79,-0.78,-2.87,4.82
13.610,4.05,-0.09,-3.24,5.19
13.620,4.31,0.91,-3.08,5.37
13.630,4.19,2.05,-2.90,5.49
13.640,3.48,3.08,-2.46,5.26
13.650,2.20,3.96,-2.16,5.02
13.660,0.91,4.93,-2.17,5.46
13.670,0.67,5.82,-2.37,6.32
13.680,1.90,6.20,-2.35,6.90
13.690,4.28,5.34,-2.57,7.31
13.700,6.16,3.41,-3.22,7.74
13.710,6.39,1.95,-3.72,7.65
13.720,5.16,1.16,-4.20,6.76
13.730,3.42,0.64,-4.53,5.71
13.740,1.73,0.16,-4.79,5.10
13.750,0.25,-0.16,-4.66,4.67
13.760,-0.54,-0.38,-3.18,3.24
13.770,-0.84,-0.65,-1.77,2.06
13.780,-0.87,-0.84,-0.57,1.34
13.790,-0.90,-1.20,0.22,1.52
13.799,-0.95,-1.36,0.65,1.78
13.809,-0.78,-0.93,0.48,1.31
13.820,-0.24,-0.31,0.03,0.40
13.830,0.43,0.17,0.37,0.59
13.840,1.23,0.69,1.35,1.95
13.849,2.13,1.75,0.69,2.85
13.860,2.09,3.63,0.64,4.24
13.870,0.93,5.34,1.88,5.73
13.880,-0.17,5.56,2.25,6.01
13.890,-0.64,4.52,2.13,5.03
13.899,-1.25,2.56,2.50,3.79
13.909,-2.28,0.44,3.03,3.82
13.919,-2.95,-0.83,3.09,4.35
13.930,-2.94,-1.12,3.45,4.67
13.939,-2.26,-1.41,3.89,4.71
13.949,-1.46,-2.10,4.29,5.00
13.959,-0.98,-2.78,4.85,5.67
13.969,-0.81,-2.91,4.93,5.79
13.979,-1.04,-2.27,4.23,4.91
13.989,-1.61,-1.52,3.45,4.10
13.999,-2.21,-1.14,3.13,4.00
14.009,-2.46,-1.19,3.14,4.16
14.019,-2.44,-1.82,3.15,4.38
14.029,-2.43,-2.83,2.84,4.69
14.039,-2.46,-3.92,1.93,5.02
14.049,-2.73,-4.73,0.92,5.54
14.059,-3.12,-4.60,0.29,5.57
14.069,-3.29,-3.93,0.32,5.13
14.079,-3.08,-3.66,0.56,4.81
14.089,-2.50,-3.25,0.35,4.11
14.099,-1.80,-2.32,-0.03,2.93
14.109,-1.24,-1.52,-0.15,1.97
14.119,-0.96,-0.86,-0.66,1.45
14.129,-0.80,-0.59,-1.80,2.05
14.139,-0.17,-0.20,-3.75,3.76
14.149,1.03,0.69,-5.68,5.81
14.159,2.46,2.61,-5.93,6.93
14.169,3.01,4.73,-3.65,6.69
14.179,2.91,6.95,-2.15,7.83
14.189,3.43,7.97,-4.12,9.61
14.199,3.83,8.07,-3.84,9.72
14.209,3.20,8.58,1.07,9.21
14.219,2.45,7.39,2.06,8.05
14.229,1.61,4.80,1.31,5.23
14.239,0.05,3.81,2.29,4.45
14.249,-1.65,3.21,1.89,4.08
14.259,-2.96,2.09,0.83,3.72
14.269,-3.71,1.12,0.42,3.90
14.279,-3.93,0.60,0.42,3.99
14.289,-3.58,0.38,0.23,3.61
14.299,-2.94,0.38,0.37,2.99
14.309,-2.36,0.45,0.47,2.44
14.319,-1.90,0.46,0.17,1.96
14.329,-1.65,0.36,0.39,1.73
14.339,-1.25,0.10,0.21,1.27
14.349,-0.68,-0.11,0.34,0.77
14.359,-0.29,0.17,0.19,0.39
14.369,-0.23,0.86,0.25,0.93
14.379,-0.13,1.28,1.19,1.75
14.389,0.25,1.50,1.85,2.39
14.398,0.80,1.36,1.96,2.52
14.409,1.10,0.51,1.67,2.07
14.419,0.92,-0.94,1.25,1.82
14.429,0.56,-2.09,0.80,2.31
14.439,0.24,-2.61,0.72,2.72
14.449,-0.02,-2.78,1.17,3.02
14.458,-0.21,-2.87,1.69,3.34
14.469,-0.43,-3.12,1.79,3.62
14.479,-0.70,-3.48,1.62,3.90
14.489,-1.10,-3.89,1.32,4.26
14.499,-1.65,-4.12,0.61,4.48
14.509,-2.19,-4.06,-0.08,4.61
14.518,-2.43,-3.83,-0.79,4.60
14.528,-2.12,-3.38,-1.97,4.45
14.538,-1.12,-2.63,-2.44,3.75
14.549,0.20,-2.44,-2.45,3.47
14.558,1.05,-3.13,-2.51,4.14
14.568,1.53,-3.61,-2.95,4.90
14.578,1.85,-3.20,-3.33,4.98
14.588,2.27,-1.89,-3.41,4.52
14.598,2.73,0.23,-3.34,4.32
14.608,3.05,2.90,-2.25,4.77
14.618,2.95,5.26,-1.01,6.11
14.628,2.35,6.41,-1.22,6.94
14.638,1.47,6.41,-2.33,6.98
14.648,1.04,5.87,-2.70,6.54
14.658,1.57,4.95,-2.33,5.69
14.668,3.04,3.93,-1.92,5.33
14.678,4.75,3.16,-1.76,5.97
14.688,6.19,2.64,-1.85,6.97
14.698,7.12,2.41,-3.08,8.13
14.708,7.04,2.11,-3.90,8.32
14.718,5.90,1.12,-4.45,7.48
14.728,4.16,-0.15,-5.17,6.64
14.738,2.13,-0.86,-4.59,5.14
14.748,0.39,-0.92,-2.61,2.79
14.758,-0.74,-0.79,-0.96,1.45
14.768,-1.28,-0.80,-0.11,1.52
14.778,-1.41,-1.20,0.12,1.86
14.788,-1.42,-1.76,0.34,2.29
14.798,-1.52,-1.97,0.54,2.55
14.808,-1.03,-1.45,-0.33,1.81
14.818,-0.44,-0.50,-0.21,0.70
14.828,0.36,0.70,0.77,1.10
14.838,1.10,1.95,0.99,2.45
14.848,1.69,3.30,-0.11,3.71
14.858,1.36,4.58,0.63,4.82
14.868,0.05,5.24,2.49,5.80
14.878,-1.03,5.01,3.40,6.14
14.888,-1.39,3.82,3.36,5.27
14.898,-2.21,1.46,3.24,4.18
14.908,-3.45,-0.68,2.93,4.58
14.918,-3.99,-1.33,2.60,4.94
14.928,-3.51,-1.56,2.76,4.73
14.938,-2.29,-2.02,2.98,4.26
14.948,-1.04,-2.42,3.38,4.28
14.958,-0.39,-2.71,3.85,4.72
14.968,-0.27,-2.38,3.57,4.29
14.978,-0.61,-1.64,2.70,3.22
14.988,-1.19,-1.06,2.36,2.84
14.998,-1.65,-0.66,2.65,3.19
15.008,-1.94,-1.03,3.02,3.73
15.018,-2.32,-1.91,3.17,4.37
15.028,-2.81,-2.47,3.00,4.80
15.038,-3.11,-2.81,2.31,4.78
15.048,-3.00,-3.18,1.15,4.52
15.058,-2.68,-3.28,0.20,4.25
15.068,-2.43,-3.53,-0.18,4.29
15.078,-1.94,-3.69,-0.90,4.26
15.088,-1.22,-3.60,-2.11,4.34
15.098,-0.73,-3.12,-2.60,4.13
15.108,-0.42,-2.26,-2.32,3.27
15.118,0.13,-1.54,-1.93,2.47
15.128,1.24,-0.66,-2.82,3.15
15.138,2.76,1.57,-4.86,5.81
15.148,3.44,4.14,-3.82,6.60
15.157,2.55,6.13,-1.17,6.74
15.167,2.01,7.19,-3.22,8.13
15.177,2.70,6.81,-4.68,8.69
15.187,2.57,7.20,0.06,7.64
15.197,1.88,6.92,3.11,7.81
15.208,1.07,4.73,2.41,5.42
15.217,-0.44,3.09,2.82,4.21
15.228,-2.18,2.35,2.32,3.96
15.237,-3.58,1.38,0.87,3.93
15.248,-4.36,0.81,0.41,4.46
15.257,-4.53,0.81,0.42,4.62
15.267,-4.14,1.02,0.46,4.29
15.277,-3.51,1.46,0.42,3.83
15.287,-2.68,2.09,0.29,3.41
15.297,-2.10,2.37,0.93,3.30
15.307,-1.47,2.08,0.72,2.64
15.317,-1.03,1.36,0.71,1.85
15.327,-0.69,1.27,0.64,1.58
15.337,-0.56,1.84,0.26,1.94
15.347,-0.54,2.09,0.96,2.37
15.357,-0.47,2.02,1.21,2.40
15.367,-0.48,1.56,1.38,2.13
15.377,-0.56,0.77,1.60,1.86
15.387,-0.51,-0.27,1.37,1.49
15.397,-0.28,-1.29,0.99,1.65
15.407,-0.14,-1.88,0.61,1.98
15.417,-0.29,-2.11,0.42,2.17
15.427,-0.40,-2.34,0.48,2.42
15.437,-0.23,-2.74,0.86,2.88
15.447,0.12,-3.13,1.06,3.31
15.457,0.31,-3.61,0.96,3.75
15.467,0.22,-4.04,0.63,4.09
15.477,0.02,-4.12,0.01,4.12
15.487,-0.35,-4.02,-0.43,4.05
15.497,-0.64,-3.95,-0.75,4.07
15.507,-0.55,-3.91,-1.85,4.36
15.517,-0.31,-3.93,-2.93,4.91
15.527,0.26,-3.79,-3.17,4.95
15.537,1.13,-3.47,-2.78,4.59
15.547,1.91,-3.06,-2.34,4.30
15.557,2.20,-2.63,-2.31,4.14
15.567,1.95,-1.90,-2.78,3.89
15.577,1.54,-0.59,-3.36,3.74
15.587,1.52,1.35,-3.00,3.62
15.597,1.88,3.61,-2.14,4.60
15.607,2.12,5.12,-2.20,5.96
15.617,1.95,5.49,-3.03,6.57
15.627,1.76,5.39,-3.42,6.62
15.637,2.06,5.09,-3.05,6.28
15.647,2.82,4.80,-1.97,5.91
15.657,4.06,4.69,-0.98,6.28
15.667,5.48,3.93,-0.92,6.80
15.677,6.29,2.52,-2.03,7.07
15.687,5.99,1.54,-3.02,6.89
15.697,5.00,1.23,-3.65,6.31
15.707,3.63,0.86,-4.12,5.56
15.717,1.99,-0.28,-4.91,5.30
15.727,0.34,-1.14,-4.93,5.07
15.737,-1.07,-1.26,-3.60,3.96
15.747,-1.99,-1.41,-1.67,2.96
15.757,-2.10,-1.75,0.44,2.76
15.767,-1.82,-2.06,1.00,2.92
15.777,-1.58,-2.20,0.52,2.76
15.787,-1.10,-1.37,-0.09,1.76
15.797,-0.39,0.77,-0.29,0.91
15.806,0.27,2.87,-0.31,2.90
15.817,1.32,4.54,-0.66,4.77
15.826,2.12,5.82,0.04,6.20
15.836,2.31,6.19,0.65,6.64
15.847,1.65,5.55,1.50,5.98
15.856,0.47,4.46,2.92,5.35
15.867,-0.33,3.09,3.83,4.93
15.876,-1.10,1.26,4.38,4.68
15.886,-2.38,-1.05,4.19,4.93
15.896,-3.54,-2.30,3.55,5.51
15.906,-4.01,-2.57,3.00,5.63
15.916,-3.62,-2.82,2.54,5.24
15.926,-2.60,-3.20,2.48,4.81
15.936,-1.55,-3.23,3.20,4.81
15.946,-0.77,-2.58,4.00,4.81
15.956,-0.46,-1.85,4.06,4.49
15.966,-0.83,-1.13,3.62,3.88
15.976,-1.60,-0.48,3.28,3.68
15.986,-2.23,-0.33,3.23,3.93
15.996,-2.62,-0.99,3.40,4.40
16.006,-2.78,-2.10,3.54,4.97
16.016,-2.64,-2.88,2.73,4.77
16.026,-2.32,-3.13,1.12,4.05
16.036,-2.11,-3.09,0.20,3.74
16.046,-2.29,-2.90,0.66,3.75
16.056,-2.46,-2.82,0.91,3.85
16.066,-2.34,-2.71,-0.06,3.58
16.076,-2.34,-2.66,-1.57,3.88
16.086,-2.63,-2.10,-2.00,3.92
16.096,-2.38,-1.08,-2.61,3.70
16.106,-1.15,-0.02,-4.46,4.60
16.116,0.73,2.06,-5.66,6.06
16.126,2.23,4.97,-4.56,7.10
16.136,2.67,7.14,-1.95,7.87
16.146,3.09,8.11,-2.01,8.91
16.156,3.21,7.82,-2.31,8.77
16.166,1.76,7.36,-0.03,7.56
16.176,-0.22,6.97,1.61,7.16
16.186,-0.97,6.27,0.19,6.34
16.196,-0.83,5.12,0.01,5.19
16.206,-0.41,3.75,1.20,3.96
16.216,-0.28,2.24,1.00,2.47
16.226,-0.80,1.04,0.62,1.45
16.236,-1.70,0.37,0.76,1.89
16.246,-2.53,-0.26,0.80,2.67
16.256,-2.92,-0.75,0.53,3.06
16.266,-2.86,-1.02,0.27,3.05
16.276,-2.63,-0.86,-0.06,2.77
16.286,-2.19,-0.29,-0.24,2.22
16.296,-1.55,-0.07,0.08,1.55
16.306,-0.75,-0.18,0.21,0.80
16.316,-0.16,-0.66,0.14,0.70
16.326,0.57,-0.60,-0.27,0.87
16.336,0.94,0.15,0.31,1.00
16.346,1.12,1.24,1.17,2.04
16.356,0.97,1.98,0.96,2.40
16.366,0.39,1.69,0.67,1.86
16.376,-0.36,0.60,1.20,1.39
16.386,-0.72,-0.57,1.42,1.69
16.395,-0.77,-1.60,1.27,2.19
16.406,-0.71,-2.30,1.23,2.70
16.416,-0.67,-2.52,0.83,2.73
16.426,-0.62,-2.61,0.76,2.79
16.436,-0.46,-2.78,0.73,2.91
16.446,-0.28,-3.03,0.56,3.09
16.455,-0.11,-3.40,0.21,3.41
16.466,-0.02,-3.84,-0.37,3.86
16.475,0.03,-4.10,-0.83,4.19
16.486,0.16,-4.05,-1.04,4.19
16.495,0.33,-3.94,-1.33,4.17
16.506,0.69,-3.54,-1.54,3.92
16.515,1.40,-2.69,-1.66,3.46
16.525,1.86,-2.06,-1.74,3.28
16.535,1.80,-2.00,-1.88,3.28
16.546,1.61,-1.85,-1.95,3.13
16.555,1.60,-1.57,-1.73,2.83
16.565,1.40,-1.24,-1.75,2.56
16.575,1.12,-0.57,-2.07,2.42
16.585,0.84,0.39,-2.60,2.76
16.595,0.48,1.33,-2.96,3.28
16.605,0.17,2.18,-2.84,3.58
16.615,0.05,2.74,-2.96,4.04
16.625,0.41,2.99,-3.21,4.41
16.635,1.32,3.01,-3.07,4.49
16.645,2.40,3.02,-2.71,4.72
16.655,3.49,3.16,-2.49,5.33
16.665,4.43,3.47,-1.79,5.90
16.675,5.19,3.71,-1.01,6.46
16.685,5.76,3.43,-2.02,7.00
16.695,5.64,2.58,-3.70,7.22
16.705,4.73,1.80,-4.37,6.69
16.715,3.51,1.17,-4.33,5.70
16.725,2.32,0.42,-4.58,5.15
16.735,1.12,-0.18,-4.35,4.50
16.745,-0.03,-0.34,-2.97,2.99
16.755,-0.65,-0.10,-1.09,1.27
16.765,-0.83,0.21,-0.30,0.90
16.775,-0.98,0.21,-0.05,1.00
16.785,-1.07,0.02,0.19,1.09
16.795,-0.99,0.28,0.00,1.03
16.805,-0.78,1.30,-0.12,1.52
16.815,-0.58,2.47,0.30,2.55
16.825,0.17,3.52,0.47,3.55
16.835,0.72,4.22,0.89,4.38
16.845,1.06,4.65,0.83,4.84
16.855,0.76,4.75,1.53,5.05
16.865,-0.03,4.41,3.05,5.36
16.875,-0.73,3.30,3.65,4.98
16.885,-1.16,1.81,3.87,4.42
16.895,-1.76,0.13,3.83,4.22
16.905,-2.81,-1.53,3.19,4.52
16.915,-3.54,-1.92,2.69,4.84
16.925,-3.61,-1.65,2.82,4.87
16.935,-3.01,-1.95,3.09,4.73
16.945,-2.16,-2.51,3.58,4.88
16.955,-1.55,-2.73,4.32,5.34
16.965,-1.13,-2.44,4.51,5.25
16.975,-1.01,-1.93,4.15,4.69
16.985,-1.25,-1.49,3.55,4.05
16.995,-1.64,-1.19,3.07,3.68
17.005,-1.95,-1.47,2.90,3.79
17.015,-2.17,-2.25,2.79,4.20
17.025,-2.37,-2.99,2.81,4.74
17.035,-2.51,-3.55,2.60,5.06
17.045,-2.69,-3.78,1.86,5.00
17.055,-2.91,-3.81,1.33,4.98
17.065,-3.12,-3.69,1.03,4.94
17.075,-3.19,-3.48,0.35,4.74
17.085,-3.10,-3.04,-0.80,4.41
17.094,-2.85,-2.38,-2.15,4.29
17.105,-2.31,-1.42,-3.41,4.36
17.114,-1.52,-0.53,-4.01,4.33
17.125,-0.40,0.26,-4.39,4.41
17.135,1.10,1.46,-4.48,4.83
17.145,2.53,3.48,-3.78,5.72
17.155,3.09,5.72,-2.30,6.89
17.165,2.50,8.11,-2.53,8.86
17.175,2.38,9.56,-5.24,11.15
17.185,3.08,10.71,-5.43,12.40
17.195,3.69,11.53,-0.51,12.12
17.205,4.42,8.87,2.95,10.34
17.214,4.09,3.98,3.41,6.64
17.225,1.84,2.30,3.09,4.26
17.234,-0.98,1.32,2.14,2.70
17.244,-3.17,0.10,1.43,3.48
17.254,-4.25,-0.52,1.15,4.43
17.265,-4.52,-0.81,1.31,4.78
17.274,-4.31,-0.33,0.94,4.43
17.285,-3.71,0.84,0.51,3.83
17.294,-2.94,1.74,0.51,3.45
17.304,-2.00,1.68,0.38,2.64
17.314,-1.30,0.94,0.57,1.71
17.324,-0.99,-0.14,1.59,1.87
17.334,-0.61,-1.09,1.22,1.74
17.344,-0.90,-1.47,0.83,1.91
17.354,-1.12,-1.14,0.97,1.87
17.364,-1.10,-0.64,1.12,1.70
17.374,-1.06,-0.44,1.44,1.84
17.384,-0.90,-0.82,1.66,2.06
17.394,-0.43,-1.76,1.44,2.31
17.404,0.11,-2.76,0.85,2.89
17.414,0.43,-3.48,0.42,3.54
17.424,0.64,-3.84,0.51,3.92
17.434,0.91,-3.82,0.41,3.95
17.444,1.15,-3.53,-0.22,3.72
17.454,1.16,-3.31,-0.22,3.51
17.464,0.86,-3.28,-0.07,3.39
17.474,0.27,-3.42,-0.66,3.50
17.484,-0.13,-3.51,-0.79,3.59
17.494,0.10,-3.12,-0.42,3.15
17.504,0.67,-2.46,-0.69,2.64
17.514,1.02,-1.93,-1.42,2.60
17.524,1.01,-1.53,-2.14,2.82
17.534,1.02,-1.23,-2.71,3.15
17.544,1.64,-1.00,-2.38,3.06
17.554,2.48,-0.65,-2.03,3.27
17.564,2.74,-0.27,-2.23,3.54
17.574,2.60,0.05,-2.25,3.44
17.584,2.51,0.62,-2.00,3.27
17.594,2.31,1.40,-1.81,3.25
17.604,1.98,1.83,-1.93,3.32
17.614,1.59,1.93,-2.60,3.60
17.624,1.22,2.08,-3.25,4.05
17.634,0.94,2.58,-3.29,4.28
17.644,0.80,3.35,-2.60,4.31
17.654,1.02,4.21,-1.40,4.56
17.664,2.26,5.02,-1.13,5.62
17.674,4.48,5.14,-2.75,7.35
17.684,6.99,4.67,-4.01,9.31
17.694,7.48,3.66,-3.02,8.86
17.704,5.76,2.73,-2.43,6.83
17.714,3.47,2.21,-3.23,5.23
17.724,1.14,1.84,-3.86,4.42
17.734,-0.82,1.62,-3.64,4.06
17.744,-1.79,0.90,-3.09,3.69
17.754,-1.79,-0.20,-2.50,3.08
17.764,-1.58,-1.26,-1.85,2.74
17.774,-1.52,-2.51,-1.03,3.11
17.784,-1.21,-3.64,-0.31,3.85
17.794,-0.80,-3.84,0.26,3.93
17.804,-0.18,-2.73,1.02,2.92
17.814,0.77,-0.53,1.91,2.12
17.823,1.61,1.66,1.71,2.88
17.834,2.20,3.52,0.31,4.16
17.843,2.10,4.69,0.54,5.17
17.853,1.42,4.79,1.09,5.12
17.863,0.58,4.21,1.27,4.43
17.874,-0.22,3.09,2.14,3.77
17.883,-1.13,1.34,2.88,3.38
17.894,-2.30,-0.44,3.03,3.83
17.904,-3.32,-1.11,3.15,4.71
17.913,-3.62,-1.37,3.36,5.13
17.924,-3.18,-2.04,3.61,5.22
17.933,-2.43,-2.76,3.77,5.27
17.944,-1.75,-3.09,3.90,5.27
17.953,-1.32,-2.65,3.83,4.84
17.963,-1.11,-1.89,3.23,3.91
17.973,-1.37,-0.95,2.80,3.26
17.983,-1.86,-0.33,2.83,3.40
17.993,-2.26,-0.43,3.22,3.96
18.003,-2.61,-1.03,3.69,4.64
18.013,-2.79,-1.77,3.20,4.60
18.023,-2.88,-2.61,2.05,4.39
18.033,-2.96,-3.26,1.36,4.61
18.043,-2.96,-3.25,0.85,4.48
18.053,-2.86,-3.15,0.29,4.27
18.063,-2.81,-3.07,-0.03,4.17
18.073,-2.62,-2.73,-0.48,3.82
18.083,-2.27,-2.27,-0.94,3.35
18.093,-2.07,-1.69,-1.26,2.95
18.103,-1.91,-1.10,-1.39,2.61
18.113,-1.60,-0.62,-2.53,3.06
18.123,-0.68,0.04,-4.24,4.30
18.133,0.94,2.49,-5.61,6.21
18.143,2.03,5.72,-5.31,8.06
18.153,2.38,7.95,-4.30,9.35
18.163,3.85,8.86,-5.59,11.16
18.173,5.29,9.00,-4.46,11.35
18.183,4.58,8.10,0.91,9.35
18.193,2.06,5.58,3.63,6.97
18.203,0.02,3.58,2.29,4.25
18.213,-1.05,2.86,1.31,3.32
18.223,-1.51,2.30,1.06,2.95
18.233,-1.60,1.83,0.42,2.47
18.243,-1.67,1.53,-0.02,2.27
18.253,-1.85,1.05,0.63,2.22
18.263,-2.07,0.68,1.17,2.47
18.273,-2.18,0.45,1.21,2.53
18.283,-2.36,0.17,1.04,2.59
18.293,-2.22,0.02,0.71,2.34
18.303,-1.74,-0.10,0.42,1.80
18.313,-1.20,-0.40,0.25,1.29
18.323,-0.67,-0.90,0.70,1.33
18.333,-0.16,-1.19,1.31,1.78
18.343,-0.51,-0.42,0.66,0.94
18.353,-0.93,-0.04,0.05,0.94
18.363,-1.10,0.37,0.48,1.25
18.373,-1.25,1.16,0.45,1.77
18.383,-1.29,1.32,0.02,1.85
18.393,-1.37,0.63,0.10,1.51
18.403,-1.17,-0.37,0.57,1.36
18.413,-0.47,-1.11,0.61,1.35
18.423,0.39,-1.47,0.02,1.52
18.433,0.28,-2.06,0.12,2.09
18.443,0.30,-2.51,0.80,2.65
18.453,0.14,-2.73,0.86,2.86
18.463,-0.09,-2.46,0.65,2.55
18.473,-0.07,-2.42,0.34,2.44
18.483,0.01,-2.71,0.12,2.72
18.492,0.17,-3.05,-0.14,3.06
18.503,0.17,-3.19,-0.98,3.34
18.513,0.15,-3.24,-1.24,3.47
18.523,0.49,-3.15,-0.95,3.33
18.532,1.02,-2.82,-1.14,3.21
18.543,1.76,-2.38,-1.37,3.26
18.552,2.31,-2.72,-1.02,3.71
18.563,2.22,-3.14,-1.01,3.97
18.572,1.24,-3.15,-1.78,3.82
18.583,0.44,-2.77,-1.98,3.43
18.593,0.17,-2.14,-2.08,2.99
18.603,0.16,-1.37,-2.27,2.65
18.612,0.21,-0.53,-2.09,2.16
18.622,0.21,0.34,-1.39,1.45
18.632,0.16,1.17,-0.60,1.32
18.642,-0.13,2.05,-0.36,2.09
18.653,-0.73,2.74,-0.33,2.86
18.662,-1.04,3.24,-1.04,3.56
18.672,-0.59,3.55,-2.06,4.15
18.682,-0.61,5.40,-1.82,5.73
18.692,-0.11,6.17,-1.92,6.46
18.702,0.88,5.88,-1.65,6.17
18.712,1.68,5.89,-1.83,6.40
18.722,1.81,4.99,-2.93,6.06
18.732,1.69,2.96,-2.89,4.47
18.742,2.03,0.94,-2.58,3.41
18.752,2.62,-0.46,-2.89,3.92
18.762,3.42,-1.31,-2.50,4.43
18.772,3.56,-1.36,-1.98,4.29
18.782,3.67,-0.72,-1.44,4.01
18.792,3.70,0.08,-1.32,3.93
18.802,3.24,0.17,-1.26,3.48
18.812,2.52,-0.04,-1.20,2.79
18.822,1.89,-0.29,-1.35,2.34
18.832,1.70,-0.82,-1.60,2.48
18.842,1.49,-1.16,-1.53,2.43
18.852,1.24,-1.36,-1.29,2.25
18.862,1.06,-1.81,-0.76,2.22
18.872,0.73,-1.89,0.44,2.07
18.882,0.14,-1.48,1.70,2.25
18.892,-0.47,-0.97,2.68,2.89
18.902,-0.52,-0.35,2.70,2.77
18.912,-0.46,0.35,2.50,2.57
18.922,-0.76,0.95,2.43,2.72
18.932,-1.12,1.43,2.21,2.86
18.942,-1.85,1.21,1.13,2.48
18.952,-3.14,0.54,0.45,3.22
18.962,-3.92,-0.23,0.99,4.05
18.972,-2.58,-0.73,2.73,3.82
18.982,-0.74,-0.93,3.78,3.97
18.992,-0.12,-0.47,4.32,4.35
19.002,-0.21,0.03,4.94,4.95
19.012,-0.27,0.26,4.86,4.87
19.022,-0.42,0.06,4.17,4.19
19.032,-0.65,-0.23,3.30,3.37
19.042,-0.73,-0.04,3.03,3.12
19.052,-0.47,-0.12,2.54,2.59
19.062,-0.13,-0.34,2.29,2.32
19.072,-0.44,-0.35,2.22,2.29
19.082,-0.90,-0.48,2.18,2.41
19.092,-1.23,-0.77,2.05,2.52
19.101,-1.43,-0.91,1.69,2.39
19.112,-2.00,-0.09,1.77,2.67
19.122,-1.57,-0.04,1.85,2.42
19.132,-1.50,1.09,1.23,2.22
19.142,-1.32,2.81,0.10,3.11
19.152,-1.58,2.34,-0.62,2.89
19.162,-1.47,1.88,-1.15,2.65
19.172,-0.72,2.77,-2.70,3.93
19.181,-0.26,3.27,-3.44,4.76
19.192,0.58,3.19,-3.51,4.77
19.202,1.54,2.99,-3.30,4.71
19.212,2.17,2.32,-3.65,4.84
19.222,2.69,2.01,-4.01,5.23
19.232,3.71,2.44,-3.80,5.84
19.242,4.53,2.91,-3.08,6.20
19.252,4.86,2.41,-2.03,5.79
19.262,5.36,1.89,-0.53,5.70
19.271,6.04,1.75,0.43,6.30
19.282,5.72,2.04,-0.08,6.08
19.291,3.87,2.16,-0.70,4.49
19.302,1.69,2.27,1.71,3.30
19.311,0.55,0.77,3.08,3.23
19.321,0.60,-1.08,2.84,3.10
19.331,1.94,-1.74,3.65,4.49
19.341,3.09,-1.27,3.89,5.13
19.351,3.86,-0.04,2.60,4.66
19.361,4.16,1.74,1.01,4.62
19.371,3.52,2.81,-0.33,4.52
19.381,2.31,2.32,-1.20,3.48
19.391,0.69,0.81,-0.44,1.15
19.401,-0.71,-0.86,-0.04,1.11
19.411,-0.94,-2.42,-0.15,2.60
19.421,-0.74,-3.05,-0.05,3.14
19.431,-0.60,-2.37,-0.94,2.61
19.441,-0.22,-1.35,-2.01,2.43
19.451,0.46,-0.78,-2.26,2.43
19.461,0.56,-1.19,-2.21,2.57
19.471,0.84,-1.27,-1.53,2.16
19.481,1.33,-1.29,-2.01,2.74
19.491,1.86,-1.50,-2.14,3.20
19.501,2.35,-1.36,-1.25,2.99
19.511,2.83,-1.39,-0.57,3.21
19.521,3.12,-1.91,-1.03,3.80
19.531,2.39,-1.50,-1.02,3.00
19.541,2.52,-0.82,-0.74,2.75
19.551,2.13,-0.92,-2.11,3.14
19.561,1.28,-0.63,-2.28,2.69
19.571,0.84,-0.21,-2.38,2.53
19.581,-0.01,0.18,-2.47,2.47
19.591,-0.89,0.41,-2.52,2.70
19.601,-1.12,0.51,-2.36,2.66
19.611,-2.05,0.05,-2.55,3.27
19.621,-2.43,-1.19,-3.44,4.38
19.631,-2.36,-1.58,-3.59,4.58
19.641,-2.55,-1.46,-3.88,4.87
19.651,-1.95,-1.63,-4.56,5.22
19.661,-1.62,-1.04,-4.25,4.67
19.671,-1.26,-0.35,-4.37,4.56
19.681,-0.81,0.26,-4.68,4.76
19.691,-0.58,1.07,-4.27,4.44
19.701,-0.60,1.46,-3.92,4.22
19.711,-0.10,1.41,-3.71,3.97
19.721,2.20,1.78,-3.14,4.23
19.731,5.38,3.33,-1.68,6.54
19.741,10.72,5.82,-3.96,12.83
19.751,8.21,8.39,-5.03,12.77
19.761,-0.63,5.13,-2.62,5.79
19.771,-3.52,0.81,6.18,7.16
19.781,-4.57,-1.34,-0.45,4.79
19.791,-3.63,-2.43,-0.57,4.40
19.801,-2.01,0.59,1.13,2.38
19.811,-0.34,3.93,-1.76,4.32
19.821,0.89,5.66,-1.00,5.81
19.831,2.44,3.83,-1.05,4.66
19.840,4.39,1.25,-1.91,4.95
19.851,4.72,-0.63,-2.67,5.46
19.860,4.52,-2.48,-2.53,5.74
19.871,4.21,-2.67,-1.76,5.28
19.881,4.28,-2.19,-1.35,4.99
19.891,4.36,-1.91,-2.17,5.23
19.901,4.39,-1.28,-3.58,5.81
19.911,4.17,-0.38,-4.13,5.88
19.920,3.73,0.68,-3.60,5.23
19.930,3.45,1.46,-2.56,4.54
19.940,3.33,1.91,-2.08,4.37
19.950,3.71,2.13,-1.78,4.63
19.961,4.21,1.18,-0.97,4.47
19.970,4.37,-0.11,-0.04,4.37
19.980,4.18,-1.06,0.73,4.37
19.990,3.62,-1.69,0.47,4.02
20.000,3.27,-1.70,-0.36,3.70
20.010,3.36,-1.29,-1.59,3.94
20.020,3.83,-0.83,-2.98,4.93
20.030,4.22,-0.68,-3.69,5.65
20.041,3.97,-0.93,-1.86,4.49
20.050,3.98,-1.24,-1.13,4.32
20.060,2.32,-4.06,2.78,5.44
20.070,4.43,-0.06,-0.70,4.48
20.080,2.02,-0.13,1.34,2.43
20.090,1.67,0.26,5.30,5.56
20.100,2.64,1.50,1.47,3.38
20.110,2.75,0.62,0.09,2.82
20.120,1.79,-0.77,-0.64,2.05
20.130,0.91,-1.84,-0.35,2.09
20.140,0.71,-2.20,0.48,2.36
20.150,1.13,-1.57,0.53,2.01
20.160,1.51,-0.48,0.12,1.59
20.170,1.94,-0.68,0.02,2.06
20.180,1.69,-1.17,-0.49,2.12
20.190,0.98,-0.26,-1.24,1.60
20.200,0.81,0.18,-1.54,1.75
20.210,0.49,0.66,-1.78,1.96
20.220,0.03,1.00,-1.40,1.72
20.230,-0.53,1.72,0.37,1.84
20.240,-1.11,2.12,1.56,2.86
20.250,-0.75,1.43,0.55,1.70
20.260,-0.00,0.59,-0.25,0.64
20.270,0.34,0.10,-0.97,1.03
20.280,1.18,-0.03,-0.62,1.33
20.290,1.34,-0.08,-0.14,1.35
20.300,1.21,-0.06,-0.24,1.24
20.310,1.13,-0.28,0.01,1.16
20.320,1.27,-0.21,-0.08,1.29
20.330,1.46,0.32,0.13,1.50
20.340,1.26,0.78,0.08,1.48
20.350,0.98,0.61,-0.65,1.32
20.360,0.58,0.15,-0.49,0.77
20.370,0.27,-0.12,-0.22,0.36
20.380,0.01,0.16,-0.46,0.48
20.390,-0.30,0.61,-0.37,0.78
20.400,-0.52,0.83,0.28,1.02
20.410,-0.45,0.52,0.94,1.16
20.420,-0.41,0.27,1.23,1.32
20.430,-0.43,-0.03,1.06,1.14
20.440,-0.38,-0.17,0.80,0.90
20.450,-0.32,-0.07,0.35,0.48
20.460,-0.23,-0.08,-0.53,0.59
20.470,-0.16,-0.46,-1.12,1.22
