time,ax,ay,az,atotal
0.000,0.64,-0.02,-0.06,0.64
0.010,0.66,-0.25,-0.12,0.72
0.020,0.65,-0.33,-0.16,0.75
0.030,0.52,-0.31,-0.22,0.64
0.040,0.63,-0.11,-0.15,0.66
0.050,0.51,-0.14,-0.55,0.76
0.060,0.57,-0.07,-0.84,1.02
0.070,0.74,-0.12,-0.65,0.99
0.080,0.75,-0.26,-0.54,0.96
0.090,0.61,-0.45,-0.64,0.99
0.100,0.51,-0.61,-0.53,0.96
0.110,0.28,-0.55,-0.26,0.68
0.120,-0.14,-0.44,0.11,0.47
0.130,-0.41,-0.60,0.41,0.84
0.140,-0.42,-0.80,0.51,1.04
0.150,-0.22,-0.76,0.46,0.92
0.160,0.18,-0.70,0.44,0.84
0.170,0.50,-0.83,0.37,1.04
0.180,0.54,-1.21,0.53,1.43
0.190,0.38,-1.74,1.02,2.05
0.200,0.11,-2.43,1.50,2.86
0.210,-0.14,-2.75,1.63,3.20
0.219,-0.13,-2.48,1.63,2.97
0.230,-0.10,-2.02,1.89,2.76
0.240,-0.21,-1.54,2.33,2.80
0.250,-0.47,-1.08,2.35,2.63
0.259,-0.77,-0.93,2.23,2.54
0.270,-1.14,-0.87,2.22,2.65
0.280,-1.40,-0.82,2.23,2.76
0.290,-1.56,-1.30,2.15,2.96
0.299,-1.69,-1.99,2.05,3.32
0.310,-1.59,-2.20,1.92,3.32
0.319,-1.18,-1.86,1.38,2.60
0.330,-0.93,-1.58,0.67,1.96
0.339,-0.95,-1.12,0.61,1.59
0.349,-0.94,-0.48,0.56,1.19
0.360,-1.08,-0.38,0.43,1.22
0.369,-1.65,-0.31,0.58,1.77
0.379,-2.07,0.09,0.83,2.23
0.389,-1.92,0.19,0.65,2.04
0.399,-1.39,0.02,-0.05,1.39
0.409,-0.73,-0.17,-0.81,1.10
0.419,-0.07,-0.28,-1.66,1.69
0.429,0.47,-0.17,-1.92,1.99
0.439,0.80,-0.01,-1.77,1.94
0.449,0.82,0.24,-1.42,1.66
0.459,0.60,0.53,-1.07,1.33
0.469,0.25,0.92,-1.03,1.41
0.479,-0.31,1.53,-0.82,1.76
0.489,0.07,2.71,-2.44,3.65
0.499,1.86,2.49,-1.71,3.55
0.509,2.06,2.48,-3.11,4.48
0.519,2.36,2.18,-3.24,4.56
0.529,2.36,0.45,-2.89,3.76
0.539,1.67,-1.31,-2.47,3.26
0.549,0.11,-2.37,-0.75,2.49
0.559,-1.10,-0.85,0.86,1.63
0.569,-1.29,0.96,0.74,1.77
0.579,-1.41,1.25,-0.07,1.89
0.589,-1.42,1.06,0.12,1.77
0.599,-0.95,0.79,0.34,1.28
0.609,-0.31,0.84,-0.61,1.09
0.619,0.35,1.23,-0.96,1.60
0.629,0.64,0.82,-0.23,1.06
0.639,0.30,-0.39,0.85,0.98
0.649,-0.42,-1.05,1.42,1.82
0.659,-1.23,-0.91,1.89,2.43
0.669,-1.94,0.29,3.43,3.95
0.679,-1.92,-0.24,2.20,2.93
0.689,-0.81,-1.31,1.29,2.01
0.699,0.26,-1.90,0.99,2.16
0.709,1.01,-2.62,0.60,2.87
0.719,1.38,-3.30,-0.07,3.57
0.729,1.43,-3.31,-0.86,3.71
0.739,1.35,-2.23,-1.02,2.80
0.749,0.37,-0.72,-0.91,1.22
0.759,-1.10,1.35,-0.24,1.76
0.769,-1.71,3.11,0.73,3.62
0.779,-2.22,2.91,0.99,3.79
0.789,-1.93,1.97,0.86,2.88
0.799,-0.85,1.41,1.51,2.24
0.809,-0.17,1.19,2.31,2.61
0.818,0.24,1.10,1.64,1.99
0.829,-0.31,1.24,-0.28,1.31
0.839,-1.65,1.92,-1.43,2.91
0.849,-2.82,0.91,-2.89,4.14
0.858,-5.71,2.05,-4.14,7.34
0.868,-6.64,3.27,1.58,7.57
0.879,-0.78,3.52,3.90,5.31
0.888,-0.04,1.67,4.39,4.70
0.898,0.13,0.59,5.00,5.03
0.908,1.08,0.21,6.81,6.90
0.918,1.67,-0.21,6.10,6.33
0.928,1.37,-0.72,5.22,5.45
0.938,-0.31,-0.06,5.59,5.60
0.949,-2.31,1.81,6.08,6.75
0.958,-4.05,2.81,4.97,7.00
0.968,-5.71,2.98,3.72,7.44
0.978,-7.33,3.10,3.91,8.87
0.988,-8.00,3.16,3.48,9.28
0.998,-8.12,3.25,2.40,9.06
1.008,-8.06,3.77,1.54,9.03
1.018,-8.13,3.45,0.53,8.84
1.028,-7.83,3.02,-1.42,8.51
1.038,-7.32,3.31,-2.80,8.51
1.048,-6.53,4.01,-2.76,8.14
1.058,-5.30,5.31,-2.44,7.89
1.068,-3.57,5.43,-3.36,7.32
1.078,-1.86,4.28,-5.13,6.94
1.088,-0.19,5.01,-4.85,6.98
1.098,1.24,5.08,-4.89,7.15
1.108,2.36,3.55,-7.40,8.54
1.118,2.98,2.83,-10.10,10.90
1.128,3.18,3.06,-12.32,13.08
1.138,4.19,3.87,-13.81,14.94
1.148,5.51,4.24,-9.32,11.63
1.158,6.95,2.36,-5.92,9.43
1.168,7.09,0.04,-6.19,9.42
1.178,6.57,-0.96,-4.97,8.29
1.188,7.95,0.35,-6.66,10.38
1.198,7.88,0.71,-6.38,10.16
1.208,7.04,0.25,-3.21,7.74
1.218,7.08,0.44,-2.01,7.37
1.228,7.51,1.06,-0.93,7.64
1.238,8.25,0.01,0.98,8.31
1.248,8.68,-3.01,-0.29,9.20
1.258,8.50,-3.75,2.06,9.52
1.268,8.03,-4.71,1.06,9.37
1.278,7.93,-2.82,-2.53,8.79
1.288,7.11,-3.36,0.42,7.88
1.298,6.93,-3.73,-0.24,7.87
1.308,6.69,-3.07,1.02,7.43
1.318,6.00,-1.62,4.46,7.65
1.328,5.30,-0.67,4.44,6.95
1.338,3.85,0.41,3.69,5.35
1.348,2.05,1.32,3.86,4.57
1.358,0.43,2.28,3.33,4.06
1.368,-0.79,3.25,2.19,3.99
1.378,-1.83,3.42,1.16,4.05
1.388,-2.34,2.30,0.05,3.28
1.398,-2.41,0.29,-1.02,2.63
1.408,-2.42,-2.00,-1.33,3.41
1.418,-2.17,-4.25,-1.10,4.90
1.428,-1.49,-6.03,-0.43,6.22
1.438,-0.60,-7.11,1.39,7.27
1.448,0.47,-7.57,2.74,8.07
1.458,1.39,-7.12,3.07,7.88
1.468,2.48,-5.59,2.27,6.52
1.478,2.96,-4.31,1.15,5.35
1.488,2.62,-2.72,0.98,3.90
1.497,1.79,-1.01,0.79,2.20
1.508,0.89,0.18,0.99,1.35
1.518,0.11,0.75,1.28,1.49
1.528,-0.29,0.65,1.38,1.55
1.538,-0.06,0.62,1.67,1.78
1.547,0.45,0.03,1.97,2.02
1.558,0.38,-0.56,2.30,2.40
1.568,-0.53,-0.67,2.14,2.30
1.578,-0.29,-0.94,1.66,1.93
1.588,0.42,-1.16,2.06,2.41
1.598,1.88,-1.53,0.44,2.47
1.608,3.09,-1.02,-1.49,3.58
1.618,3.54,1.02,-3.20,4.88
1.628,3.00,3.12,-5.03,6.63
1.638,2.06,2.75,-6.15,7.05
1.648,1.16,0.76,-5.53,5.70
1.657,0.37,-0.70,-4.34,4.41
1.667,-0.66,-1.90,-2.74,3.40
1.678,-1.70,-2.81,-1.42,3.57
1.687,-2.38,-3.29,-0.54,4.09
1.698,-2.23,-2.83,0.78,3.68
1.707,-0.75,-0.90,1.19,1.67
1.717,0.76,0.93,0.31,1.25
1.727,2.05,2.00,-0.40,2.89
1.737,2.58,2.01,-0.09,3.27
1.747,1.82,1.38,-0.35,2.32
1.758,0.36,0.31,-0.12,0.49
1.767,-0.54,-0.76,0.70,1.17
1.777,-0.58,-1.15,1.13,1.71
1.787,0.05,-0.26,1.21,1.24
1.797,0.19,-0.05,2.50,2.50
1.808,0.46,-0.22,2.36,2.42
1.817,1.11,-1.03,0.91,1.76
1.827,1.54,-1.21,0.36,1.99
1.837,1.95,-0.55,0.48,2.09
1.848,1.48,-0.21,-0.55,1.60
1.857,0.07,2.72,-2.41,3.64
1.867,-0.98,4.57,-4.27,6.33
1.877,-1.52,4.61,-4.74,6.79
1.887,-0.98,4.18,-3.75,5.71
1.897,0.15,3.23,-3.48,4.75
1.907,1.32,1.24,-2.66,3.22
1.917,2.53,0.10,-1.61,3.01
1.927,2.66,0.18,0.09,2.67
1.937,1.93,0.28,2.05,2.83
1.947,1.26,-0.80,2.78,3.16
1.957,1.22,-2.44,2.95,4.01
1.967,1.17,-2.57,3.60,4.58
1.977,0.34,-1.98,3.26,3.83
1.987,0.31,-1.73,1.12,2.08
1.997,1.00,-1.19,-0.00,1.55
2.007,0.85,0.30,0.68,1.13
2.017,0.37,0.89,-1.24,1.58
2.027,0.14,0.90,-2.63,2.78
2.037,-0.04,1.49,-3.04,3.39
2.047,0.52,1.49,-3.42,3.77
2.057,1.20,0.81,-2.36,2.77
2.067,0.98,0.13,-0.57,1.14
2.077,0.73,-0.31,0.87,1.18
2.087,0.56,0.07,2.07,2.15
2.097,0.56,0.23,2.13,2.21
2.107,0.52,0.03,1.99,2.06
2.117,0.52,0.18,1.54,1.63
2.127,0.32,0.58,1.14,1.32
2.137,0.04,1.17,0.14,1.17
2.147,-0.01,1.26,0.25,1.28
2.157,0.16,1.07,0.85,1.37
2.167,0.38,0.94,1.08,1.48
2.177,0.17,0.58,1.14,1.29
2.187,-0.07,0.12,1.03,1.04
2.196,0.07,-0.33,0.19,0.39
2.207,0.33,-1.15,-0.19,1.22
2.217,0.39,-1.91,-0.63,2.05
2.227,0.25,-2.19,-1.13,2.47
2.237,0.05,-2.15,-1.48,2.61
2.246,-0.06,-2.56,-1.60,3.02
2.257,-0.24,-2.44,-1.94,3.13
2.267,-0.08,-2.34,-1.69,2.89
2.277,-0.02,-2.57,-0.90,2.73
2.287,-0.27,-2.80,-0.25,2.83
2.296,-0.13,-3.28,0.10,3.28
2.307,0.13,-3.72,0.50,3.76
2.317,0.26,-4.05,0.73,4.12
2.327,0.27,-3.96,0.65,4.02
2.336,0.27,-3.61,0.27,3.63
2.346,0.32,-2.99,-0.15,3.01
2.356,0.27,-2.13,-0.27,2.17
2.366,0.08,-0.93,-0.45,1.04
2.376,-0.26,0.80,-0.85,1.20
2.386,-0.62,2.28,-1.04,2.58
2.396,-0.73,3.07,-0.83,3.26
2.406,-0.91,3.75,-0.46,3.88
2.416,-1.11,4.05,-0.11,4.20
2.426,-1.02,3.75,0.42,3.91
2.436,-1.09,3.26,0.49,3.47
2.446,-1.23,2.67,0.56,2.99
2.456,-1.16,2.02,0.69,2.42
2.466,-0.79,1.09,1.09,1.73
2.476,-0.21,-0.44,1.86,1.92
2.486,0.31,-1.75,2.18,2.81
2.496,0.89,-2.84,2.01,3.59
2.506,1.11,-3.49,1.22,3.86
2.516,1.09,-4.02,0.59,4.20
2.526,1.02,-4.31,0.05,4.43
2.536,0.97,-4.47,-0.59,4.62
2.546,0.84,-4.68,-1.39,4.96
2.556,0.58,-4.82,-2.50,5.46
2.566,0.05,-4.64,-3.56,5.85
2.576,-0.58,-4.20,-4.08,5.88
2.586,-1.03,-2.92,-3.81,4.91
2.596,-1.47,2.29,-3.35,4.32
2.606,-2.41,8.15,-3.60,9.23
2.616,-3.09,11.27,-2.62,11.97
2.627,-3.12,13.32,4.11,14.28
2.636,-1.85,10.89,5.77,12.46
2.646,-0.89,4.85,-0.17,4.94
2.656,-1.04,1.87,-1.42,2.57
2.666,-0.36,-0.65,-2.05,2.18
2.676,0.17,-1.49,-0.10,1.50
2.686,1.46,-0.62,-1.12,1.94
2.696,0.79,0.81,-0.92,1.46
2.706,-0.08,0.59,0.67,0.90
2.716,-0.56,0.46,0.66,0.98
2.726,-0.66,0.41,0.95,1.22
2.736,-0.39,0.64,1.13,1.36
2.746,-0.13,0.84,0.74,1.12
2.756,0.03,0.92,-0.17,0.94
2.766,0.12,0.98,-1.00,1.40
2.776,0.15,1.09,-1.42,1.79
2.786,0.15,1.21,-1.33,1.80
2.796,0.19,1.24,-0.94,1.57
2.806,0.24,0.93,-0.50,1.08
2.816,0.14,0.33,-0.28,0.46
2.826,-0.09,-0.13,-0.34,0.38
2.836,-0.34,-0.28,-0.53,0.69
2.846,-0.54,-0.23,-1.04,1.20
2.856,-0.63,-0.15,-1.57,1.70
2.866,-0.66,-0.26,-1.89,2.02
2.876,-0.54,-0.44,-2.09,2.20
2.886,-0.33,-0.56,-2.01,2.11
2.896,-0.12,-0.64,-1.68,1.81
2.905,0.01,-0.84,-1.28,1.53
2.916,0.04,-1.20,-1.02,1.58
2.926,-0.00,-1.59,-0.99,1.87
2.935,-0.03,-1.97,-1.06,2.24
2.946,0.05,-2.12,-1.15,2.41
2.955,0.26,-2.03,-1.12,2.33
2.965,0.50,-1.87,-1.09,2.22
2.975,0.70,-1.67,-1.16,2.15
2.985,0.82,-1.51,-1.34,2.18
2.996,0.97,-1.46,-1.54,2.34
3.005,1.11,-1.46,-1.63,2.45
3.015,1.18,-1.43,-1.61,2.45
3.025,1.17,-1.28,-1.53,2.31
3.035,1.07,-0.88,-1.47,2.02
3.045,0.93,-0.17,-1.50,1.78
3.055,0.80,0.85,-1.65,2.02
3.065,0.70,2.14,-1.83,2.90
3.075,0.67,3.49,-1.88,4.02
3.085,0.52,4.80,-1.56,5.08
3.095,0.06,6.08,-0.85,6.14
3.106,-0.59,7.21,0.04,7.23
3.115,-1.06,7.97,0.76,8.08
3.125,-0.82,7.89,0.96,7.99
3.135,0.08,6.69,0.71,6.73
3.145,0.81,5.16,0.44,5.24
3.155,1.01,3.59,0.23,3.74
3.165,0.64,2.31,0.03,2.40
3.175,-0.21,1.82,-0.31,1.86
3.185,-1.18,2.20,-0.87,2.65
3.195,-1.75,3.26,-1.56,4.02
3.205,-1.76,4.71,-2.10,5.45
3.215,-1.38,6.32,-2.61,6.97
3.225,-1.09,7.50,-2.53,7.99
3.235,-1.10,7.76,-2.02,8.09
3.245,-1.21,6.96,-1.42,7.21
3.255,-1.18,5.40,-0.67,5.56
3.265,-0.86,3.81,0.11,3.90
3.275,-0.69,2.35,0.68,2.54
3.285,-0.77,0.92,1.02,1.57
3.295,-0.75,-0.45,1.30,1.57
3.305,-0.54,-1.73,1.45,2.32
3.315,-0.21,-3.11,1.58,3.50
3.325,0.10,-4.64,1.73,4.95
3.335,0.20,-6.48,1.66,6.69
3.345,0.08,-8.62,1.25,8.71
3.355,-0.27,-10.47,1.12,10.54
3.365,-0.72,-11.30,1.31,11.40
3.375,-0.98,-10.61,1.13,10.72
3.385,-0.79,-9.10,0.66,9.15
3.395,-0.72,-7.90,-0.14,7.93
3.405,-1.03,-6.69,-0.97,6.84
3.415,-1.18,-5.06,-1.83,5.51
3.425,-1.08,-2.90,-2.41,3.92
3.435,-0.84,0.13,-2.64,2.77
3.445,0.10,4.02,-3.15,5.11
3.455,1.22,7.92,-3.16,8.61
3.465,1.81,10.76,-1.46,11.01
3.475,1.72,10.71,1.62,10.97
3.485,1.86,6.96,3.93,8.20
3.495,2.45,3.35,4.50,6.12
3.505,2.88,1.16,3.91,4.99
3.515,2.93,-0.35,2.57,3.91
3.525,2.76,-1.24,1.11,3.23
3.535,2.73,-1.55,0.33,3.16
3.544,2.75,-1.36,0.11,3.07
3.555,2.63,-1.19,-0.87,3.02
3.565,1.92,-1.62,-1.56,2.96
3.575,0.90,-2.11,-1.53,2.76
3.585,-0.06,-2.27,-1.41,2.68
3.595,-0.62,-2.67,-1.13,2.96
3.605,-0.63,-3.31,-0.52,3.41
3.614,-0.44,-3.80,0.19,3.83
3.625,-0.29,-4.02,0.81,4.12
3.634,-0.20,-4.07,1.13,4.22
3.644,-0.05,-4.07,0.96,4.19
3.654,0.25,-4.15,0.38,4.17
3.664,0.61,-4.27,-0.42,4.33
3.674,0.88,-4.39,-1.20,4.63
3.684,0.95,-4.50,-1.84,4.96
3.694,0.88,-4.30,-2.43,5.02
3.704,0.74,-3.63,-3.09,4.82
3.714,0.86,-2.41,-3.68,4.48
3.724,1.29,-0.65,-3.76,4.03
3.734,1.91,1.65,-2.77,3.75
3.744,2.84,4.38,-0.61,5.26
3.754,3.94,7.21,1.70,8.39
3.764,3.72,9.93,2.52,10.90
3.774,1.78,11.16,1.94,11.47
3.785,-0.91,11.39,2.13,11.63
3.795,-3.82,11.84,3.06,12.81
3.805,-6.56,10.75,3.13,12.98
3.814,-7.04,8.06,1.40,10.79
3.824,-4.29,3.72,0.26,5.68
3.834,-0.73,0.86,0.30,1.16
3.844,1.56,-0.88,-0.44,1.85
3.854,3.03,-2.41,-1.58,4.18
3.864,3.52,-3.85,-1.99,5.58
3.874,3.13,-4.97,-1.58,6.08
3.884,2.09,-5.55,-0.88,6.00
3.894,0.58,-5.90,-0.39,5.94
3.904,-0.96,-6.37,0.06,6.44
3.914,-2.21,-6.95,0.45,7.30
3.924,-3.22,-7.15,0.62,7.87
3.934,-4.23,-6.60,0.77,7.88
3.944,-5.38,-5.27,0.81,7.57
3.954,-6.42,-3.13,0.67,7.17
3.964,-6.79,-0.30,0.47,6.81
3.974,-6.56,2.56,0.34,7.05
3.984,-5.79,4.60,0.45,7.41
3.994,-4.15,5.28,1.18,6.82
4.004,-2.02,4.54,2.21,5.44
4.014,-0.13,3.49,2.48,4.28
4.024,1.13,2.79,1.78,3.50
4.034,1.71,2.32,0.59,2.94
4.044,1.85,2.28,-0.36,2.96
4.054,1.89,2.24,-0.86,3.05
4.064,2.04,1.77,-0.94,2.86
4.074,2.10,0.72,-0.72,2.33
4.084,2.02,-0.64,-0.55,2.19
4.094,1.78,-2.02,-0.40,2.72
4.104,1.37,-3.20,-0.31,3.50
4.114,0.85,-4.09,-0.33,4.19
4.124,0.34,-4.64,-0.51,4.68
4.134,-0.11,-5.04,-0.82,5.11
4.144,-0.48,-5.37,-1.17,5.51
4.154,-0.67,-5.53,-1.43,5.75
4.164,-0.74,-5.46,-1.54,5.72
4.174,-0.75,-5.04,-1.38,5.28
4.184,-0.66,-4.29,-1.06,4.47
4.193,-0.51,-3.53,-0.88,3.68
4.204,-0.34,-2.99,-0.97,3.16
4.214,-0.19,-2.68,-1.37,3.01
4.224,0.05,-2.32,-1.91,3.00
4.234,0.35,-1.84,-2.47,3.10
4.243,0.55,-1.27,-2.99,3.29
4.253,0.64,-0.54,-3.43,3.54
4.264,0.64,0.43,-3.66,3.74
4.273,0.53,1.80,-3.54,4.01
4.283,0.35,3.63,-3.07,4.77
4.294,0.30,5.97,-2.12,6.34
4.303,0.67,8.58,-0.67,8.63
4.313,1.22,10.79,0.98,10.90
4.324,0.92,12.24,2.96,12.63
4.334,-0.40,12.98,4.67,13.80
4.345,-1.54,13.53,5.37,14.64
4.354,-1.46,13.07,4.75,13.98
4.364,-0.38,10.42,3.58,11.02
4.373,0.44,7.07,2.48,7.51
4.383,0.39,4.32,1.05,4.47
4.393,-0.24,2.39,-0.39,2.43
4.403,-1.16,1.01,-1.26,1.99
4.413,-2.06,-0.09,-1.65,2.64
4.423,-2.55,-1.09,-1.80,3.30
4.433,-2.58,-2.11,-1.78,3.78
4.443,-2.34,-3.32,-1.45,4.31
4.453,-1.91,-4.67,-0.87,5.12
4.463,-1.31,-5.90,-0.34,6.06
4.473,-0.69,-6.92,-0.21,6.95
4.483,-0.25,-7.83,-0.30,7.84
4.493,-0.08,-8.78,-0.50,8.80
4.503,-0.25,-9.59,-0.40,9.60
4.513,-0.56,-9.72,0.07,9.73
4.523,-0.40,-8.97,0.31,8.98
4.533,-0.14,-6.69,1.07,6.78
4.543,-0.18,-3.84,1.70,4.21
4.553,-0.20,-1.48,1.53,2.13
4.563,0.39,1.12,1.25,1.72
4.573,1.60,4.82,0.69,5.13
4.583,2.27,8.57,0.19,8.87
4.593,1.89,9.71,0.46,9.91
4.603,1.80,8.21,0.54,8.42
4.613,2.64,4.37,0.35,5.12
4.623,3.28,0.68,0.79,3.44
4.633,3.58,-1.00,1.08,3.87
4.643,3.14,-1.97,0.85,3.81
4.653,2.28,-2.66,0.92,3.62
4.663,1.74,-3.15,1.41,3.86
4.673,1.57,-3.10,1.55,3.81
4.683,1.42,-2.86,0.11,3.20
4.693,0.86,-2.96,-1.64,3.49
4.703,0.01,-2.84,-2.30,3.65
4.713,-0.70,-2.58,-2.56,3.71
4.723,-1.00,-2.66,-2.41,3.73
4.733,-1.04,-2.66,-1.53,3.24
4.743,-0.95,-2.45,-0.25,2.64
4.753,-0.67,-2.02,1.43,2.56
4.763,-0.23,-1.47,2.80,3.18
4.773,-0.04,-1.14,3.23,3.42
4.783,0.01,-1.13,2.36,2.62
4.793,0.34,-1.41,0.66,1.60
4.803,0.63,-2.01,-0.82,2.26
4.813,0.83,-2.76,-1.94,3.48
4.823,1.01,-3.19,-2.88,4.41
4.833,1.38,-3.10,-3.70,5.02
4.843,1.82,-2.47,-4.11,5.13
4.853,2.25,-1.42,-4.03,4.83
4.863,3.04,0.09,-3.00,4.27
4.872,4.03,2.23,-0.62,4.65
4.882,4.47,5.10,1.84,7.03
4.893,3.43,8.83,2.48,9.79
4.902,1.21,11.16,2.08,11.42
4.913,-0.46,11.75,1.85,11.90
4.924,-2.00,12.78,2.65,13.20
4.934,-4.69,12.24,3.19,13.49
4.943,-5.30,10.15,1.34,11.53
4.952,-2.52,6.00,0.45,6.53
4.962,0.32,3.46,0.45,3.50
4.972,1.98,0.99,-0.74,2.34
4.982,3.18,-1.63,-1.99,4.09
4.992,3.69,-3.94,-2.47,5.94
5.002,3.45,-5.61,-2.03,6.89
5.012,2.54,-6.35,-0.96,6.91
5.022,1.05,-6.36,-0.32,6.45
5.032,-0.62,-6.39,-0.02,6.42
5.042,-1.88,-7.13,0.07,7.37
5.052,-2.81,-7.80,0.13,8.29
5.062,-3.58,-7.81,0.24,8.59
5.072,-4.45,-7.12,0.30,8.41
5.082,-5.58,-5.78,0.29,8.04
5.092,-6.88,-3.79,0.50,7.87
5.102,-7.76,-1.17,1.02,7.91
5.112,-7.82,1.41,1.33,8.05
5.122,-6.79,3.14,1.41,7.61
5.132,-4.41,3.62,1.64,5.94
5.142,-1.62,3.15,1.93,4.04
5.152,0.53,2.87,1.85,3.45
5.162,1.83,2.61,1.20,3.41
5.172,2.44,2.47,0.38,3.49
5.182,2.68,2.55,-0.32,3.71
5.192,2.75,2.42,-0.71,3.73
5.202,2.88,2.11,-0.62,3.62
5.212,2.98,1.15,-0.27,3.20
5.222,2.77,-0.25,-0.17,2.78
5.232,2.37,-1.48,-0.34,2.81
5.242,1.89,-2.37,-0.60,3.09
5.252,1.32,-3.05,-0.81,3.42
5.262,0.65,-3.57,-1.05,3.77
5.272,0.03,-3.86,-1.33,4.08
5.282,-0.40,-3.91,-1.45,4.19
5.292,-0.63,-3.79,-1.34,4.07
5.302,-0.79,-3.87,-1.01,4.07
5.312,-0.76,-3.96,-0.58,4.07
5.322,-0.53,-3.91,-0.12,3.95
5.332,-0.28,-3.72,0.25,3.74
5.342,-0.12,-3.46,0.41,3.49
5.352,-0.03,-3.16,0.10,3.16
5.362,0.00,-2.75,-0.68,2.84
5.372,0.04,-2.11,-1.79,2.77
5.382,0.08,-1.31,-2.88,3.17
5.392,0.18,-0.59,-3.71,3.76
5.402,0.16,-0.23,-3.83,3.84
5.412,-0.06,-0.20,-3.21,3.22
5.422,-0.30,-0.25,-2.48,2.51
5.431,-0.48,-0.24,-1.88,1.95
5.442,-0.59,0.06,-1.33,1.46
5.452,-0.61,0.82,-0.91,1.37
5.462,-0.36,2.13,-0.60,2.24
5.472,-0.01,3.80,-0.26,3.81
5.482,0.09,5.61,0.12,5.61
5.492,-0.15,7.74,0.79,7.78
5.502,-0.60,10.04,2.01,10.25
5.511,-0.64,11.77,3.35,12.26
5.523,0.41,11.21,3.95,11.89
5.531,1.58,8.42,3.82,9.38
5.542,1.71,5.79,3.02,6.75
5.551,1.11,4.09,1.51,4.50
5.562,-0.02,3.32,-0.23,3.32
5.571,-1.54,3.14,-1.55,3.82
5.582,-3.11,3.24,-2.34,5.07
5.592,-4.35,3.40,-2.77,6.18
5.601,-4.80,3.75,-2.22,6.48
5.612,-4.38,3.77,-0.59,5.81
5.621,-3.51,3.13,0.02,4.70
5.631,-2.68,2.17,-0.11,3.45
5.641,-2.07,1.10,-0.14,2.35
5.651,-1.60,-0.24,0.17,1.63
5.661,-1.17,-1.71,0.60,2.16
5.671,-0.70,-3.01,0.97,3.24
5.681,-0.09,-4.27,1.34,4.48
5.691,0.54,-5.48,1.72,5.77
5.701,0.88,-6.56,1.80,6.86
5.711,0.92,-7.69,1.57,7.90
5.721,0.72,-8.96,0.95,9.04
5.731,0.39,-9.64,0.63,9.67
5.741,0.67,-9.35,-0.01,9.38
5.751,1.32,-8.35,-0.63,8.47
5.761,1.62,-6.86,-0.97,7.11
5.771,1.59,-4.69,-1.09,5.08
5.781,1.49,-2.45,-1.36,3.18
5.791,1.55,-0.20,-1.84,2.41
5.801,1.64,2.80,-1.81,3.72
5.811,1.95,5.91,-1.96,6.53
5.821,2.54,9.09,-2.31,9.72
5.831,3.09,11.29,-1.58,11.81
5.841,2.49,9.58,0.91,9.94
5.851,1.34,4.84,2.75,5.73
5.861,0.49,1.37,3.60,3.89
5.871,0.07,-0.72,3.47,3.55
5.881,0.08,-1.94,2.24,2.96
5.891,0.21,-2.53,0.97,2.72
5.901,0.37,-2.87,-0.14,2.90
5.911,0.45,-2.82,-0.65,2.93
5.921,0.40,-2.58,-1.64,3.09
5.931,0.09,-2.48,-2.72,3.68
5.941,-0.30,-2.37,-2.27,3.30
5.951,-0.37,-2.27,-1.44,2.71
5.961,-0.15,-2.17,-0.41,2.21
5.971,0.16,-2.29,0.70,2.40
5.981,0.37,-2.61,1.61,3.09
5.991,0.40,-2.81,2.08,3.52
6.001,0.36,-2.78,2.08,3.49
6.011,0.40,-2.83,1.43,3.19
6.021,0.45,-3.19,0.45,3.25
6.031,0.44,-3.70,-0.53,3.76
6.041,0.50,-4.29,-1.35,4.52
6.051,0.71,-4.86,-1.84,5.24
6.061,0.93,-5.28,-2.18,5.78
6.071,1.14,-5.38,-2.45,6.02
6.081,1.34,-5.13,-2.68,5.94
6.091,1.55,-4.40,-2.86,5.47
6.101,1.84,-3.11,-2.80,4.57
6.111,2.24,-1.23,-2.38,3.49
6.121,2.73,1.29,-1.30,3.29
6.131,3.68,3.67,-0.35,5.21
6.141,4.30,6.11,0.80,7.52
6.151,3.33,9.47,1.44,10.14
6.161,1.48,11.83,0.76,11.95
6.172,0.16,11.72,0.04,11.72
6.181,-0.57,10.69,0.29,10.71
6.191,-1.46,9.30,0.35,9.42
6.200,-1.78,7.61,-0.99,7.88
6.211,-0.78,4.82,-1.67,5.16
6.221,1.21,2.87,-0.98,3.26
6.231,2.45,1.63,-0.43,2.97
6.241,2.74,0.49,-0.56,2.84
6.250,2.49,-0.10,-0.75,2.60
6.261,1.81,-0.14,-1.00,2.07
6.270,1.02,-0.26,-0.93,1.40
6.280,0.49,-0.67,-0.01,0.83
6.290,0.30,-0.99,1.20,1.58
6.300,0.16,-1.12,1.94,2.24
6.310,-0.17,-0.99,2.14,2.36
6.320,-0.64,-1.05,1.96,2.32
6.330,-1.17,-1.67,1.59,2.59
6.340,-1.77,-2.65,1.29,3.43
6.350,-2.48,-3.63,1.09,4.53
6.360,-3.30,-4.51,0.96,5.67
6.370,-4.15,-5.05,0.92,6.60
6.380,-4.93,-5.18,0.91,7.21
6.390,-5.40,-4.88,0.75,7.31
6.400,-5.42,-4.28,0.42,6.92
6.410,-5.00,-3.35,0.24,6.02
6.420,-4.08,-2.24,0.45,4.68
6.430,-3.07,-0.96,0.66,3.29
6.440,-2.20,0.77,0.57,2.40
6.450,-1.26,2.56,0.32,2.87
6.460,0.05,4.13,0.27,4.14
6.470,1.55,5.17,0.55,5.42
6.480,2.90,5.15,1.03,6.00
6.490,3.62,3.90,1.41,5.51
6.500,3.44,2.24,1.55,4.39
6.510,2.63,0.82,1.54,3.15
6.520,1.85,-0.33,1.12,2.19
6.530,1.37,-0.91,0.07,1.64
6.540,1.02,-1.05,-0.99,1.77
6.550,0.72,-1.12,-1.66,2.12
6.560,0.48,-1.37,-2.00,2.47
6.570,0.15,-1.76,-2.07,2.72
6.580,-0.37,-2.26,-1.98,3.03
6.590,-0.90,-2.65,-1.64,3.24
6.600,-1.25,-2.75,-1.02,3.19
6.610,-1.40,-2.57,-0.17,2.93
6.620,-1.38,-2.44,0.59,2.86
6.630,-1.23,-2.55,0.96,2.99
6.640,-0.91,-2.77,0.88,3.05
6.650,-0.54,-3.02,0.57,3.12
6.660,-0.23,-3.21,0.02,3.22
6.670,0.03,-3.32,-0.76,3.41
6.680,0.16,-3.37,-1.60,3.74
6.690,0.21,-3.31,-2.37,4.08
6.700,0.26,-3.11,-2.87,4.24
6.710,0.24,-2.84,-3.01,4.14
6.720,0.06,-2.55,-2.94,3.89
6.729,-0.25,-2.17,-2.75,3.51
6.740,-0.62,-1.59,-2.58,3.09
6.749,-0.97,-0.75,-2.43,2.72
6.760,-1.21,0.36,-2.10,2.45
6.770,-1.33,1.80,-1.56,2.73
6.780,-1.34,3.56,-0.96,3.92
6.790,-1.38,5.42,-0.31,5.60
6.800,-1.64,7.41,0.61,7.61
6.810,-2.01,9.61,2.07,10.03
6.820,-2.00,11.63,3.77,12.38
6.831,-1.36,12.62,4.71,13.53
6.841,-0.09,12.02,4.08,12.69
6.849,1.46,10.12,2.88,10.62
6.860,2.32,7.70,1.67,8.21
6.869,2.14,5.30,0.29,5.72
6.879,1.57,3.75,-0.77,4.14
6.889,0.85,2.69,-1.19,3.06
6.900,-0.19,1.84,-1.31,2.27
6.909,-1.38,1.00,-1.40,2.21
6.919,-2.40,0.26,-1.45,2.82
6.929,-2.86,-0.38,-1.21,3.13
6.939,-2.62,-1.18,-0.81,2.98
6.950,-1.92,-2.28,-0.52,3.03
6.959,-1.03,-3.49,-0.19,3.65
6.969,-0.18,-4.55,-0.05,4.56
6.979,0.41,-5.46,-0.08,5.47
6.989,0.67,-6.13,-0.17,6.17
6.999,0.67,-6.71,-0.25,6.75
7.009,0.57,-7.30,-0.45,7.34
7.019,0.31,-7.88,-0.58,7.91
7.029,-0.23,-8.12,-0.23,8.12
7.039,-0.65,-7.23,0.14,7.26
7.049,-0.75,-4.92,0.57,5.01
7.059,-0.83,-2.44,0.86,2.72
7.069,-0.68,0.12,1.10,1.30
7.079,0.29,2.77,0.84,2.91
7.089,1.14,4.99,0.91,5.20
7.099,1.67,6.23,1.05,6.54
7.109,2.25,6.11,1.04,6.59
7.119,3.21,4.72,0.90,5.78
7.129,3.87,3.01,0.82,4.97
7.139,3.63,1.48,0.92,4.02
7.149,2.53,0.61,0.81,2.73
7.159,1.43,-0.10,0.53,1.53
7.169,0.89,-1.08,0.54,1.50
7.179,0.85,-2.23,0.57,2.46
7.189,0.99,-3.24,0.44,3.42
7.199,0.86,-3.74,0.27,3.85
7.209,0.42,-3.61,-0.18,3.64
7.219,-0.13,-3.49,-1.18,3.69
7.229,-0.53,-3.57,-1.73,4.00
7.239,-0.60,-3.63,-1.74,4.07
7.249,-0.36,-3.58,-1.59,3.93
7.259,0.03,-3.28,-1.19,3.49
7.269,0.41,-2.88,-0.33,2.93
7.279,0.77,-2.74,0.99,3.01
7.289,1.14,-2.80,2.14,3.70
7.299,1.41,-2.81,2.46,3.99
7.309,1.53,-2.56,1.84,3.50
7.319,1.49,-2.38,0.73,2.90
7.329,1.40,-2.60,-0.39,2.98
7.339,1.38,-2.85,-1.44,3.48
7.349,1.50,-2.91,-2.36,4.04
7.359,1.76,-2.60,-3.15,4.45
7.369,1.91,-1.95,-3.58,4.51
7.379,2.04,-0.86,-3.88,4.46
7.389,2.30,0.64,-4.08,4.73
7.399,2.78,2.47,-3.71,5.25
7.409,3.23,4.87,-2.19,6.24
7.419,2.95,8.36,0.75,8.90
7.428,1.82,12.31,2.97,12.79
7.439,0.29,14.03,2.90,14.32
7.449,-1.14,13.86,2.56,14.14
7.459,-2.37,14.03,3.09,14.56
7.470,-4.64,12.55,3.05,13.73
7.479,-4.85,8.94,1.02,10.22
7.488,-2.42,5.60,0.37,6.11
7.498,-0.21,3.62,-0.09,3.63
7.509,1.36,1.17,-1.46,2.31
7.518,2.48,-1.30,-2.51,3.76
7.528,2.94,-3.25,-2.87,5.24
7.538,2.71,-4.47,-2.60,5.84
7.548,2.22,-4.93,-1.94,5.75
7.558,1.49,-5.18,-1.10,5.51
7.568,0.43,-5.29,-0.28,5.32
7.578,-0.56,-5.68,0.10,5.70
7.588,-1.32,-6.10,0.38,6.26
7.598,-1.95,-6.35,0.59,6.67
7.608,-2.65,-6.37,0.82,6.95
7.618,-3.61,-6.21,1.14,7.27
7.628,-4.83,-5.65,1.48,7.57
7.638,-5.97,-4.55,1.72,7.70
7.648,-6.55,-3.03,1.68,7.41
7.658,-6.39,-1.69,1.27,6.73
7.668,-5.31,-0.85,0.72,5.42
7.678,-3.41,-0.53,0.28,3.46
7.688,-1.45,0.01,0.04,1.45
7.698,0.08,0.86,-0.14,0.88
7.708,1.08,1.78,-0.39,2.12
7.718,1.64,2.73,-0.68,3.26
7.728,2.01,3.39,-0.92,4.05
7.738,2.33,3.47,-0.88,4.26
7.748,2.50,2.81,-0.52,3.80
7.758,2.21,1.77,-0.04,2.83
7.768,1.76,0.86,0.47,2.01
7.778,1.47,-0.02,0.83,1.69
7.788,1.23,-0.81,0.83,1.69
7.798,0.88,-1.49,0.59,1.83
7.808,0.30,-2.18,0.30,2.22
7.818,-0.36,-2.77,-0.04,2.79
7.828,-0.89,-3.11,-0.47,3.27
7.838,-1.19,-3.14,-0.81,3.46
7.848,-1.54,-3.33,-0.84,3.76
7.858,-1.75,-3.43,-0.94,3.96
7.868,-1.72,-3.41,-0.86,3.91
7.878,-1.47,-3.34,-0.48,3.68
7.888,-1.10,-3.21,-0.10,3.39
7.898,-0.69,-3.01,-0.13,3.09
7.908,-0.23,-2.79,-0.63,2.87
7.918,0.29,-2.54,-1.40,2.92
7.928,0.75,-2.16,-2.09,3.10
7.938,0.88,-1.66,-2.55,3.17
7.948,0.74,-1.17,-2.90,3.21
7.958,0.53,-0.70,-3.08,3.21
7.968,0.39,-0.27,-3.02,3.05
7.978,0.40,0.14,-2.60,2.64
7.988,0.57,0.63,-1.95,2.13
7.998,0.85,1.28,-1.27,2.00
8.008,1.22,2.28,-0.80,2.70
8.018,1.41,3.45,-0.57,3.77
8.028,1.22,4.63,-0.25,4.79
8.038,0.65,6.13,0.32,6.17
8.048,-0.38,7.71,1.33,7.83
8.058,-1.39,9.20,2.45,9.62
8.068,-1.92,10.20,2.90,10.78
8.078,-1.48,9.92,2.61,10.36
8.088,-0.39,7.87,2.37,8.22
8.097,-0.03,5.83,2.16,6.22
8.107,-0.46,4.66,1.45,4.90
8.117,-1.26,3.80,0.38,4.02
8.127,-2.18,3.44,-0.51,4.10
8.137,-2.95,3.51,-1.05,4.70
8.147,-3.30,3.38,-1.22,4.88
8.158,-3.03,2.68,-1.01,4.17
8.167,-2.44,1.45,-0.66,2.91
8.178,-2.08,0.01,-0.52,2.15
8.187,-1.90,-1.33,-0.41,2.36
8.197,-1.57,-2.61,-0.15,3.05
8.207,-1.12,-3.79,0.09,3.95
8.218,-0.61,-4.96,0.40,5.01
8.227,-0.04,-6.01,0.67,6.04
8.237,0.42,-6.88,0.74,6.93
8.247,0.67,-7.74,0.74,7.80
8.257,0.68,-8.71,0.72,8.77
8.267,0.51,-9.27,0.67,9.31
8.277,0.43,-8.89,0.55,8.91
8.287,0.67,-7.69,0.25,7.72
8.297,1.17,-5.93,-0.29,6.05
8.307,1.78,-3.93,-0.99,4.43
8.317,2.13,-1.39,-0.84,2.68
8.327,2.38,1.20,-0.92,2.82
8.337,2.83,3.63,-1.33,4.79
8.347,3.25,6.40,-1.35,7.30
8.357,3.55,8.68,-0.99,9.43
8.367,3.73,8.81,-0.33,9.57
8.377,3.44,6.40,0.57,7.28
8.387,2.56,3.91,1.50,4.90
8.397,1.42,2.36,2.48,3.71
8.407,0.43,1.23,2.94,3.21
8.417,0.00,0.48,2.57,2.62
8.427,0.08,-0.24,1.53,1.55
8.437,0.25,-1.16,0.45,1.27
8.447,0.16,-2.15,-0.47,2.20
8.457,-0.35,-2.83,-1.28,3.13
8.467,-0.98,-3.14,-2.19,3.96
8.477,-1.42,-3.02,-2.50,4.17
8.487,-1.55,-2.63,-1.90,3.59
8.497,-1.08,-2.50,-1.09,2.94
8.507,-0.49,-2.30,-0.11,2.35
8.517,-0.08,-2.02,0.93,2.23
8.527,0.18,-1.97,1.83,2.70
8.537,0.31,-2.01,2.44,3.18
8.547,0.48,-2.00,2.41,3.17
8.557,0.71,-1.99,1.67,2.70
8.567,0.83,-2.05,0.59,2.29
8.577,0.92,-2.45,-0.49,2.66
8.587,1.04,-2.96,-1.45,3.46
8.597,1.18,-3.41,-2.17,4.21
8.607,1.29,-3.58,-2.69,4.66
8.617,1.39,-3.47,-3.14,4.88
8.627,1.54,-3.09,-3.57,4.96
8.637,1.69,-2.43,-3.92,4.91
8.647,1.93,-1.39,-3.93,4.60
8.657,2.53,0.36,-2.68,3.70
8.667,3.89,2.72,-0.60,4.79
8.677,5.37,5.43,2.01,7.89
8.687,5.17,9.25,3.63,11.20
8.697,2.98,12.66,2.61,13.27
8.708,-0.09,12.70,1.22,12.76
8.718,-1.93,11.78,0.31,11.94
8.728,-3.98,10.13,1.00,10.93
8.737,-4.84,7.41,0.88,8.89
8.746,-2.77,3.95,0.35,4.83
8.756,-0.08,2.13,0.56,2.21
8.767,1.39,0.44,0.12,1.46
8.777,2.21,-1.37,-0.61,2.68
8.786,2.64,-2.68,-1.34,4.00
8.797,2.72,-3.72,-1.70,4.91
8.807,2.28,-4.21,-1.15,4.93
8.816,1.29,-3.92,-0.23,4.14
8.826,-0.18,-3.52,0.39,3.55
8.836,-1.37,-3.93,0.68,4.22
8.846,-2.12,-4.30,0.93,4.88
8.856,-2.60,-4.38,1.08,5.21
8.866,-3.04,-4.18,1.13,5.29
8.876,-3.64,-3.62,1.21,5.28
8.886,-4.57,-2.87,1.34,5.57
8.896,-5.64,-1.92,1.36,6.11
8.906,-6.40,-1.00,1.27,6.61
8.916,-6.48,-0.41,1.11,6.59
8.926,-5.56,-0.43,1.04,5.67
8.936,-3.70,-1.10,1.13,4.02
8.946,-1.94,-1.19,1.06,2.51
8.956,-0.61,-0.50,0.80,1.12
8.966,0.31,0.48,0.36,0.67
8.976,1.01,1.45,-0.27,1.79
8.986,1.67,2.11,-0.82,2.81
8.996,2.35,2.25,-0.91,3.38
9.006,2.86,1.80,-0.51,3.42
9.016,3.03,1.00,0.05,3.19
9.026,2.87,0.06,0.51,2.92
9.036,2.58,-0.83,0.52,2.76
9.046,2.24,-1.53,0.08,2.72
9.056,1.85,-2.05,-0.46,2.80
9.066,1.40,-2.40,-0.89,2.92
9.076,0.89,-2.64,-1.23,3.05
9.086,0.31,-2.88,-1.48,3.25
9.096,-0.17,-2.99,-1.64,3.41
9.106,-0.54,-2.92,-1.62,3.38
9.116,-0.88,-2.80,-1.50,3.30
9.126,-1.14,-2.71,-1.30,3.22
9.136,-1.31,-2.59,-1.04,3.08
9.146,-1.36,-2.34,-0.64,2.78
9.156,-1.22,-1.98,-0.23,2.34
9.166,-0.90,-1.56,-0.00,1.80
9.176,-0.47,-1.26,-0.27,1.37
9.186,0.02,-1.20,-0.90,1.51
9.196,0.44,-1.22,-1.60,2.06
9.206,0.71,-1.01,-2.16,2.49
9.216,0.86,-0.64,-2.40,2.63
9.226,0.82,-0.42,-2.34,2.51
9.236,0.68,-0.36,-2.08,2.22
9.246,0.60,-0.30,-1.81,1.93
9.256,0.58,-0.25,-1.54,1.66
9.266,0.54,-0.20,-1.11,1.25
9.276,0.43,0.10,-0.60,0.74
9.286,0.30,0.79,-0.22,0.87
9.296,0.13,1.77,-0.01,1.78
9.306,-0.11,2.94,0.11,2.94
9.316,-0.50,4.15,0.28,4.19
9.325,-1.22,5.31,0.63,5.48
9.336,-2.37,6.36,1.19,6.89
9.345,-3.65,7.40,2.18,8.53
9.356,-4.17,8.69,3.16,10.14
9.365,-3.49,9.61,3.37,10.77
9.376,-1.48,9.50,2.90,10.04
9.386,0.80,8.12,1.98,8.40
9.396,1.83,6.39,0.80,6.70
9.406,1.61,4.85,-0.14,5.11
9.416,0.14,4.02,-0.36,4.03
9.426,-1.82,3.82,-0.25,4.23
9.436,-3.21,3.57,-0.15,4.80
9.446,-3.58,2.91,-0.08,4.62
9.456,-3.18,1.79,-0.08,3.65
9.466,-2.47,0.55,-0.24,2.54
9.476,-1.71,-0.60,-0.51,1.89
9.485,-0.87,-1.68,-0.62,1.99
9.495,-0.12,-2.71,-0.42,2.75
9.505,0.42,-3.69,-0.22,3.72
9.515,0.73,-4.49,-0.19,4.55
9.525,0.85,-5.10,-0.21,5.17
9.535,0.77,-5.66,-0.15,5.72
9.546,0.55,-6.23,-0.11,6.26
9.555,0.37,-6.76,-0.43,6.78
9.565,0.36,-7.21,-0.75,7.25
9.575,0.55,-7.30,-0.83,7.36
9.585,0.89,-6.67,-0.49,6.74
9.595,1.21,-5.16,0.05,5.30
9.605,1.41,-3.51,0.27,3.80
9.615,1.55,-2.26,0.05,2.74
9.625,1.47,-0.56,0.15,1.58
9.635,1.60,1.23,-0.23,2.03
9.645,1.82,2.95,-0.71,3.54
9.655,2.16,5.03,-0.67,5.52
9.665,2.84,6.36,-0.15,6.97
9.675,3.36,6.04,0.54,6.93
9.685,2.73,3.99,1.17,4.97
9.695,1.46,2.12,1.60,3.03
9.705,0.32,0.82,1.77,1.98
9.715,-0.42,-0.07,1.87,1.92
9.725,-0.70,-0.82,1.83,2.13
9.735,-0.80,-1.76,1.42,2.40
9.745,-0.79,-2.81,0.70,3.00
9.755,-0.85,-3.72,-0.08,3.82
9.765,-1.11,-4.16,-0.56,4.34
9.775,-1.37,-3.95,-0.84,4.26
9.785,-1.43,-3.44,-1.01,3.86
9.795,-1.32,-2.81,-0.89,3.23
9.805,-0.91,-2.26,-0.46,2.48
9.815,-0.41,-1.88,0.17,1.93
9.825,-0.03,-1.55,0.84,1.76
9.835,0.14,-1.32,1.54,2.03
9.845,0.38,-1.23,1.98,2.36
9.855,0.74,-1.15,1.88,2.33
9.865,1.11,-0.99,1.40,2.04
9.875,1.21,-0.77,0.66,1.58
9.885,1.18,-0.97,-0.26,1.55
9.895,1.17,-1.57,-1.13,2.26
9.905,1.20,-2.21,-1.86,3.13
9.915,1.21,-2.67,-2.46,3.83
9.925,1.19,-2.88,-3.01,4.34
9.935,1.11,-2.84,-3.49,4.63
9.945,1.13,-2.49,-3.87,4.74
9.955,1.35,-1.75,-4.07,4.63
9.965,1.83,-0.50,-3.49,3.98
9.975,2.75,1.37,-1.81,3.57
9.984,4.24,3.61,0.38,5.58
9.995,5.29,6.64,2.68,8.90
10.005,4.69,10.25,2.87,11.63
10.015,2.03,12.16,1.56,12.43
10.025,-1.30,12.81,1.32,12.94
10.036,-4.36,12.72,1.84,13.57
10.045,-6.08,10.48,0.63,12.13
10.055,-4.19,6.08,-0.28,7.39
10.065,-0.64,2.93,0.39,3.03
10.075,1.33,1.29,0.16,1.86
10.085,2.27,-0.77,-0.33,2.42
10.095,2.69,-2.44,-0.90,3.74
10.104,3.05,-3.86,-1.60,5.17
10.115,3.27,-4.66,-1.41,5.87
10.125,2.80,-4.52,-0.42,5.33
10.135,1.63,-3.81,0.12,4.15
10.145,0.38,-3.94,0.13,3.96
10.155,-0.57,-4.60,-0.03,4.64
10.164,-1.36,-4.97,0.09,5.15
10.174,-2.18,-5.01,0.34,5.48
10.184,-3.20,-4.63,0.60,5.66
10.194,-4.58,-3.92,0.81,6.08
10.204,-6.12,-2.82,0.99,6.81
10.214,-7.23,-1.37,0.96,7.42
10.224,-7.53,0.08,0.77,7.57
10.235,-6.89,0.93,0.84,7.01
10.244,-4.61,0.47,1.17,4.78
10.254,-1.87,-0.38,1.00,2.16
10.264,0.15,-0.52,0.44,0.70
10.274,1.41,-0.25,-0.19,1.44
10.284,1.96,0.22,-0.65,2.08
10.294,2.01,0.81,-0.93,2.36
10.304,1.86,1.48,-1.02,2.59
10.314,1.82,1.56,-0.85,2.54
10.324,1.84,0.80,-0.46,2.06
10.334,1.85,-0.06,-0.09,1.86
10.344,1.84,-0.60,0.04,1.94
10.354,1.77,-0.97,-0.02,2.02
10.364,1.59,-1.45,-0.30,2.17
10.374,1.11,-2.14,-0.64,2.49
10.384,0.50,-2.87,-1.01,3.09
10.394,0.04,-3.29,-1.31,3.55
10.404,-0.28,-3.42,-1.48,3.73
10.414,-0.52,-3.37,-1.43,3.70
10.424,-0.71,-3.21,-1.12,3.48
10.434,-0.84,-2.93,-0.47,3.09
10.444,-0.98,-2.67,0.30,2.86
10.454,-1.04,-2.24,0.83,2.60
10.464,-1.04,-1.59,0.94,2.12
10.474,-1.07,-0.89,0.61,1.52
10.484,-1.07,-0.23,-0.06,1.10
10.494,-1.02,0.31,-0.92,1.41
10.504,-0.94,0.43,-1.66,1.95
10.514,-0.74,0.06,-2.07,2.20
10.524,-0.38,-0.58,-2.18,2.29
10.534,0.05,-1.19,-1.95,2.29
10.544,0.31,-1.52,-1.44,2.12
10.555,0.23,-1.52,-1.12,1.90
10.564,0.11,-1.32,-1.14,1.75
10.574,0.16,-1.09,-1.24,1.66
10.584,0.34,-0.82,-1.38,1.64
10.594,0.54,-0.54,-1.43,1.62
10.604,0.77,-0.18,-1.38,1.59
10.614,1.01,0.40,-1.17,1.60
10.623,1.12,1.16,-0.94,1.86
10.634,1.12,2.10,-0.81,2.51
10.643,0.97,3.25,-0.83,3.49
10.654,0.57,4.69,-0.69,4.78
10.663,-0.21,6.24,-0.20,6.25
10.674,-1.03,7.50,0.59,7.60
10.683,-1.21,8.48,1.02,8.63
10.694,-0.30,8.69,0.90,8.74
10.704,1.25,7.35,1.00,7.52
10.714,2.17,5.63,1.09,6.14
10.723,1.97,4.35,0.76,4.84
10.734,0.58,3.91,0.44,3.98
10.744,-1.54,4.33,0.16,4.60
10.754,-3.56,5.17,-0.07,6.28
10.764,-5.12,5.90,0.14,7.81
10.773,-5.83,6.09,0.70,8.46
10.784,-5.63,5.30,1.04,7.80
10.794,-4.77,3.60,1.11,6.07
10.803,-3.70,1.94,0.78,4.25
10.813,-2.78,0.69,0.47,2.90
10.823,-1.92,-0.46,0.37,2.01
10.833,-1.12,-1.67,0.40,2.05
10.844,-0.32,-2.74,0.34,2.78
10.853,0.32,-3.65,0.08,3.67
10.863,0.75,-4.52,-0.03,4.58
10.873,0.97,-5.35,0.01,5.44
10.883,1.00,-6.09,-0.25,6.18
10.893,1.05,-6.71,-0.78,6.84
10.903,1.18,-7.34,-1.21,7.53
10.913,1.45,-7.92,-1.28,8.15
10.923,1.77,-8.26,-1.16,8.53
10.933,2.02,-7.95,-0.99,8.26
10.943,2.11,-6.87,-1.05,7.26
10.953,1.99,-5.53,-1.16,5.99
10.963,1.85,-4.03,-1.27,4.61
10.973,1.70,-2.22,-0.97,2.96
10.983,1.65,0.06,-0.33,1.68
10.993,1.45,1.92,0.18,2.42
11.003,0.87,4.99,0.57,5.09
11.013,0.39,8.93,0.20,8.94
11.023,0.25,11.59,0.32,11.60
11.033,0.16,9.34,1.48,9.45
11.043,0.33,4.56,2.29,5.11
11.053,0.27,1.96,2.61,3.28
11.063,-0.00,0.39,2.64,2.67
11.073,-0.16,-0.62,2.39,2.48
11.083,-0.06,-1.28,1.79,2.21
11.093,0.08,-1.84,0.99,2.09
11.103,-0.03,-2.33,0.13,2.33
11.113,-0.37,-2.76,-0.66,2.86
11.123,-0.67,-2.96,-1.24,3.28
11.133,-0.73,-2.81,-1.28,3.17
11.143,-0.45,-2.51,-0.93,2.72
11.153,0.08,-2.21,-0.36,2.24
11.163,0.56,-2.12,0.16,2.19
11.173,0.78,-2.20,0.64,2.42
11.183,0.74,-2.26,1.08,2.61
11.193,0.63,-2.37,1.33,2.78
11.203,0.58,-2.54,1.33,2.92
11.213,0.53,-2.65,1.12,2.93
11.223,0.55,-2.82,0.82,2.99
11.233,0.58,-3.01,0.47,3.10
11.243,0.64,-3.29,0.04,3.36
11.253,0.69,-3.76,-0.46,3.86
11.263,0.67,-4.10,-0.94,4.26
11.273,0.64,-4.18,-1.42,4.46
11.283,0.61,-4.00,-1.85,4.45
11.293,0.57,-3.63,-2.25,4.31
11.303,0.60,-3.06,-2.57,4.04
11.313,0.68,-2.12,-2.74,3.53
11.323,0.89,-0.89,-2.89,3.16
11.333,1.27,0.58,-2.86,3.19
11.343,1.84,2.33,-2.01,3.59
11.353,2.61,4.40,-0.36,5.12
11.363,3.35,6.15,1.11,7.09
11.373,3.20,8.26,1.94,9.07
11.382,2.11,10.46,1.38,10.76
11.393,0.31,11.31,0.63,11.33
11.403,-1.42,11.14,0.38,11.23
11.414,-3.22,9.97,0.10,10.48
11.422,-4.29,8.34,-0.63,9.40
11.433,-3.03,5.52,-0.98,6.37
11.443,0.01,2.58,-0.28,2.59
11.452,1.79,1.32,0.36,2.25
11.462,2.40,0.53,0.22,2.47
11.473,2.69,-0.02,-0.28,2.70
11.482,2.70,-0.57,-1.04,2.95
11.492,2.46,-1.22,-1.40,3.08
11.502,1.72,-1.34,-0.81,2.33
11.512,0.89,-0.98,-0.07,1.33
11.522,0.22,-1.14,0.27,1.20
11.532,-0.30,-1.92,0.32,1.97
11.542,-0.77,-2.83,0.41,2.97
11.552,-1.25,-3.74,0.57,3.98
11.562,-1.87,-4.59,0.75,5.01
11.572,-2.63,-5.28,0.96,5.98
11.582,-3.51,-5.79,1.13,6.86
11.592,-4.49,-6.00,1.19,7.59
11.602,-5.35,-5.73,1.00,7.90
11.612,-5.71,-4.86,0.54,7.52
11.622,-5.29,-3.51,-0.08,6.34
11.632,-4.23,-2.16,-0.47,4.77
11.642,-3.04,-1.02,-0.56,3.26
11.652,-1.96,0.12,-0.46,2.01
11.662,-0.99,1.25,-0.28,1.62
11.672,-0.06,2.30,-0.11,2.30
11.682,0.84,3.10,0.10,3.22
11.692,1.73,3.41,0.30,3.84
11.702,2.39,3.01,0.62,3.89
11.712,2.57,1.97,0.85,3.35
11.722,2.44,0.79,0.87,2.71
11.732,2.20,-0.31,0.49,2.28
11.742,1.79,-1.09,-0.08,2.10
11.752,1.21,-1.49,-0.51,1.99
11.762,0.52,-1.72,-0.74,1.94
11.772,-0.09,-1.93,-0.98,2.17
11.782,-0.56,-2.14,-1.04,2.45
11.792,-0.91,-2.25,-0.86,2.57
11.802,-1.07,-2.13,-0.51,2.44
11.812,-1.20,-1.98,0.20,2.32
11.822,-1.31,-2.11,0.74,2.59
11.832,-1.24,-2.20,0.97,2.71
11.842,-1.08,-2.16,1.05,2.63
11.852,-0.87,-2.13,0.88,2.47
11.862,-0.56,-2.05,0.51,2.19
11.872,-0.24,-1.90,0.13,1.92
11.882,0.07,-1.74,-0.40,1.79
11.892,0.30,-1.66,-1.09,2.01
11.902,0.49,-1.58,-1.92,2.54
11.912,0.71,-1.46,-2.60,3.07
11.922,0.89,-1.24,-2.77,3.16
11.932,0.99,-0.96,-2.45,2.81
11.942,0.96,-0.67,-1.94,2.27
11.952,0.81,-0.37,-1.64,1.87
11.962,0.70,-0.06,-1.57,1.72
11.972,0.63,0.14,-1.35,1.49
11.982,0.58,0.27,-0.95,1.15
11.992,0.53,0.49,-0.58,0.93
12.002,0.45,0.95,-0.26,1.08
12.012,0.29,1.62,-0.02,1.65
12.021,0.13,2.40,0.11,2.40
12.032,0.01,3.11,0.07,3.11
12.042,-0.29,3.79,-0.03,3.80
12.052,-0.95,4.65,-0.09,4.75
12.062,-1.71,5.67,0.05,5.92
12.071,-1.92,6.76,0.21,7.03
12.082,-0.93,7.83,0.15,7.88
12.092,0.99,7.74,0.29,7.81
12.101,2.38,6.54,0.52,6.98
12.111,2.36,5.29,0.65,5.83
12.121,0.82,4.54,0.61,4.66
12.131,-1.37,4.52,0.35,4.73
12.141,-3.07,5.08,0.03,5.93
12.152,-3.88,5.88,-0.21,7.05
12.161,-3.79,6.01,-0.13,7.10
12.171,-3.11,5.00,0.10,5.89
12.181,-2.39,3.40,0.31,4.17
12.191,-1.74,2.02,0.14,2.67
12.201,-1.19,0.82,-0.35,1.49
12.211,-0.65,-0.33,-0.59,0.93
12.221,-0.15,-1.60,-0.52,1.68
12.231,0.35,-2.87,-0.27,2.90
12.241,0.83,-4.01,-0.06,4.10
12.251,1.25,-5.06,0.09,5.21
12.261,1.59,-5.90,0.28,6.12
12.271,1.75,-6.61,0.54,6.86
12.281,1.72,-7.25,0.63,7.47
12.291,1.61,-7.68,0.40,7.86
12.301,1.44,-7.93,0.14,8.06
12.311,1.35,-7.81,-0.07,7.93
12.321,1.24,-6.87,-0.08,6.98
12.331,1.05,-4.89,-0.26,5.01
12.341,0.82,-3.00,-0.64,3.18
12.351,0.51,-1.28,-0.83,1.61
12.361,0.19,0.70,-0.82,1.09
12.371,0.06,2.99,-0.87,3.12
12.381,-0.07,4.80,-0.93,4.89
12.391,-0.31,6.32,-0.38,6.34
12.401,-0.40,7.14,0.58,7.17
12.411,-0.22,5.90,1.78,6.17
12.421,0.04,3.40,2.72,4.35
12.431,-0.16,1.77,3.19,3.65
12.441,-0.49,0.64,2.90,3.01
12.451,-0.57,-0.21,2.11,2.19
12.461,-0.43,-0.94,1.12,1.53
12.471,-0.24,-1.65,0.25,1.68
12.481,0.00,-2.11,-0.37,2.14
12.491,0.12,-2.37,-0.57,2.44
12.501,0.01,-2.51,-0.50,2.56
12.511,-0.02,-2.57,-0.77,2.68
12.521,0.02,-2.56,-1.04,2.77
12.531,0.02,-2.32,-0.85,2.47
12.541,0.09,-2.09,-0.38,2.12
12.551,0.16,-2.08,0.06,2.09
12.561,0.16,-2.10,0.43,2.15
12.570,0.16,-2.12,0.74,2.25
12.581,0.33,-2.28,0.88,2.47
12.590,0.63,-2.46,0.96,2.71
12.600,0.89,-2.58,0.95,2.89
12.611,1.03,-2.74,0.74,3.02
12.620,1.00,-2.84,0.30,3.03
12.631,1.00,-3.05,-0.31,3.22
12.640,1.01,-3.39,-0.92,3.65
12.650,0.97,-3.60,-1.51,4.02
12.660,0.90,-3.53,-2.06,4.18
12.670,0.86,-3.20,-2.59,4.20
12.680,0.85,-2.59,-3.15,4.16
12.690,0.91,-1.84,-3.79,4.31
12.700,1.22,-0.94,-4.17,4.44
12.710,1.90,0.43,-3.59,4.08
12.720,3.24,2.30,-2.18,4.53
12.731,4.92,4.20,-0.34,6.48
12.740,5.34,6.72,1.46,8.71
12.750,4.11,9.47,1.25,10.40
12.760,1.29,10.43,1.06,10.57
12.771,-1.35,10.26,1.31,10.43
12.780,-2.72,10.03,1.49,10.50
12.790,-4.04,8.75,0.88,9.68
12.800,-3.35,6.44,-0.53,7.28
12.810,-0.38,3.51,-0.12,3.53
12.820,1.52,2.45,0.33,2.90
12.830,2.08,1.32,-0.11,2.46
12.840,2.35,0.08,-0.97,2.54
12.850,2.67,-1.33,-2.07,3.63
12.860,2.50,-2.61,-1.83,4.05
12.870,1.88,-3.09,-0.61,3.67
12.880,1.07,-2.56,0.31,2.79
12.890,-0.20,-2.04,0.88,2.23
12.900,-1.25,-2.38,0.79,2.80
12.910,-1.88,-2.83,0.50,3.43
12.920,-2.21,-2.92,0.38,3.68
12.930,-2.42,-2.78,0.37,3.71
12.940,-2.72,-2.75,0.46,3.89
12.950,-3.13,-2.96,0.87,4.39
12.960,-3.58,-3.36,1.46,5.12
12.970,-4.01,-3.85,1.84,5.86
12.980,-4.33,-4.08,1.84,6.23
12.990,-4.33,-3.84,1.25,5.92
13.000,-3.77,-3.32,0.52,5.05
13.010,-2.86,-2.54,-0.22,3.83
13.020,-1.91,-1.42,-0.84,2.52
13.030,-0.88,-0.20,-1.13,1.45
13.040,0.21,1.05,-1.18,1.60
13.050,1.28,2.14,-1.03,2.70
13.060,2.28,2.85,-0.68,3.72
13.070,3.02,3.11,-0.12,4.34
13.080,3.27,2.74,0.59,4.30
13.090,2.96,1.95,1.06,3.70
13.100,2.42,1.05,1.14,2.88
13.110,1.99,0.14,0.81,2.15
13.120,1.50,-0.65,0.09,1.63
13.130,0.78,-1.19,-0.64,1.56
13.140,0.03,-1.33,-1.09,1.72
13.150,-0.59,-1.18,-1.32,1.86
13.160,-1.01,-0.96,-1.34,1.93
13.170,-1.33,-0.87,-1.16,1.97
13.180,-1.54,-1.02,-0.66,1.96
13.190,-1.55,-1.21,0.01,1.97
13.200,-1.33,-1.30,0.78,2.01
13.210,-1.13,-1.56,1.37,2.36
13.220,-0.89,-1.95,1.60,2.68
13.230,-0.56,-2.23,1.51,2.75
13.240,-0.22,-2.40,1.14,2.66
13.250,0.03,-2.49,0.55,2.55
13.260,0.21,-2.46,-0.16,2.48
13.270,0.36,-2.39,-0.86,2.57
13.280,0.43,-2.36,-1.52,2.84
13.290,0.46,-2.36,-2.00,3.13
13.300,0.49,-2.33,-2.21,3.25
13.310,0.62,-2.25,-2.13,3.16
13.320,0.73,-2.22,-1.75,2.92
13.330,0.73,-2.21,-1.30,2.66
13.340,0.65,-2.12,-1.19,2.51
13.349,0.60,-1.95,-1.26,2.39
13.360,0.59,-1.67,-1.37,2.24
13.369,0.55,-1.29,-1.50,2.05
13.379,0.50,-0.74,-1.64,1.87
13.390,0.42,0.01,-1.77,1.82
13.400,0.32,0.98,-1.83,2.10
13.410,0.24,2.17,-1.77,2.82
13.419,0.07,3.57,-1.51,3.88
13.429,-0.27,5.34,-1.06,5.45
13.439,-0.95,7.42,-0.70,7.51
13.449,-1.64,9.57,-0.01,9.71
13.459,-1.32,11.66,0.56,11.75
13.470,0.80,12.06,0.73,12.11
13.479,2.94,8.45,1.22,9.03
13.489,3.33,4.11,1.18,5.42
13.499,2.10,1.76,0.64,2.81
13.509,-0.22,1.68,-0.39,1.74
13.519,-2.58,2.61,-1.21,3.87
13.529,-4.27,3.66,-2.05,5.99
13.539,-4.94,4.83,-2.79,7.45
13.549,-4.78,5.54,-2.64,7.77
13.559,-4.50,4.76,-0.95,6.62
13.569,-3.78,2.99,0.27,4.83
13.579,-2.61,1.79,0.18,3.17
13.589,-1.80,0.88,0.14,2.01
13.599,-1.20,0.05,-0.09,1.20
13.609,-0.72,-0.74,-0.22,1.06
13.619,-0.31,-1.72,-0.22,1.76
13.629,0.12,-2.73,-0.11,2.73
13.639,0.51,-3.71,0.17,3.75
13.649,0.86,-4.59,0.59,4.71
13.659,1.21,-5.31,1.13,5.56
13.669,1.49,-5.86,1.70,6.28
13.679,1.70,-6.26,2.13,6.83
13.689,1.80,-6.49,2.11,7.06
13.699,1.77,-6.48,1.37,6.86
13.709,1.68,-6.13,0.18,6.36
13.719,1.56,-5.41,-0.69,5.68
13.729,1.44,-4.40,-1.19,4.78
13.739,1.32,-3.16,-1.35,3.69
13.749,1.19,-1.64,-1.39,2.46
13.759,1.11,-0.08,-1.51,1.88
13.769,0.94,1.51,-1.40,2.26
13.779,0.78,3.12,-0.92,3.35
13.789,0.56,4.79,-0.26,4.83
13.799,0.13,6.06,0.46,6.08
13.809,-0.45,6.53,1.10,6.64
13.819,-0.85,5.67,1.74,5.99
13.829,-0.66,3.47,2.34,4.24
13.839,-0.47,1.69,2.69,3.22
13.849,-0.45,0.41,2.32,2.39
13.859,-0.47,-0.58,1.45,1.63
13.869,-0.45,-1.28,0.71,1.53
13.879,-0.34,-1.78,0.29,1.83
13.889,-0.11,-2.00,0.10,2.00
13.898,0.12,-2.13,0.12,2.13
13.909,0.18,-2.30,0.24,2.32
13.918,0.19,-2.49,0.06,2.49
13.929,0.14,-2.63,-0.28,2.65
13.938,0.04,-2.59,-0.39,2.62
13.949,0.06,-2.26,-0.44,2.31
13.959,0.40,-1.97,-0.45,2.06
13.969,0.92,-1.97,-0.29,2.19
13.978,1.41,-2.15,0.07,2.57
13.989,1.71,-2.32,0.40,2.91
13.998,1.75,-2.53,0.58,3.13
14.008,1.55,-2.76,0.60,3.22
14.018,1.27,-2.99,0.46,3.28
14.029,1.12,-3.22,0.20,3.41
14.039,1.12,-3.40,-0.07,3.58
14.048,1.16,-3.50,-0.37,3.71
14.058,1.24,-3.64,-0.81,3.93
14.069,1.36,-3.80,-1.29,4.24
14.078,1.46,-3.93,-1.72,4.53
14.088,1.42,-3.93,-2.04,4.65
14.098,1.23,-3.62,-2.42,4.52
14.108,0.90,-2.94,-2.88,4.22
14.118,0.60,-2.02,-3.40,4.00
14.128,0.51,-0.86,-3.77,3.90
14.138,0.87,0.56,-3.73,3.87
14.148,1.61,2.18,-3.17,4.17
14.158,2.57,3.82,-1.61,4.88
14.168,3.69,5.53,0.46,6.66
14.178,4.73,7.60,2.43,9.28
14.188,4.75,10.42,3.27,11.91
14.198,2.72,12.55,2.34,13.05
14.209,-0.58,13.28,1.08,13.34
14.219,-3.17,13.67,0.75,14.05
14.229,-5.49,12.19,-0.04,13.37
14.238,-5.74,8.46,-0.68,10.25
14.248,-2.97,4.34,0.24,5.27
14.258,-0.68,2.39,0.78,2.60
14.268,0.50,0.88,0.22,1.04
14.278,1.21,-0.54,-0.66,1.48
14.288,1.21,-1.84,-1.30,2.56
14.298,0.48,-3.00,-1.38,3.34
14.308,-0.25,-3.87,-1.54,4.17
14.318,-1.20,-4.34,-1.27,4.67
14.328,-2.17,-5.08,-0.54,5.55
14.338,-2.88,-6.14,0.19,6.78
14.348,-3.36,-6.56,0.85,7.41
14.358,-3.71,-6.21,1.51,7.39
14.368,-4.13,-5.37,2.18,7.12
14.378,-4.68,-4.33,2.81,6.96
14.388,-5.10,-3.15,3.31,6.85
14.398,-5.21,-1.99,3.58,6.63
14.408,-4.88,-1.27,3.42,6.09
14.418,-3.88,-0.99,2.74,4.85
14.428,-2.36,-0.87,1.68,3.02
14.438,-0.65,-0.59,0.58,1.05
14.448,0.82,-0.05,-0.29,0.87
14.458,1.75,0.43,-0.87,2.00
14.468,2.11,0.61,-1.21,2.51
14.478,2.01,0.44,-1.58,2.59
14.488,1.79,0.13,-1.86,2.59
14.498,1.77,-0.14,-1.81,2.54
14.508,1.89,-0.51,-1.42,2.41
14.518,1.96,-0.96,-0.76,2.31
14.528,1.95,-1.34,-0.13,2.37
14.538,1.80,-1.55,0.39,2.41
14.548,1.52,-1.56,0.81,2.32
14.558,1.07,-1.42,1.00,2.04
14.567,0.41,-1.21,0.98,1.61
14.578,-0.27,-0.90,0.81,1.24
14.588,-0.74,-0.63,0.58,1.13
14.598,-0.89,-0.36,0.24,0.99
14.607,-0.84,-0.19,0.03,0.86
14.617,-0.76,-0.17,-0.08,0.78
14.628,-0.66,-0.30,-0.18,0.75
14.637,-0.59,-0.58,-0.24,0.86
14.648,-0.51,-0.87,-0.32,1.06
14.657,-0.38,-1.10,-0.42,1.24
14.667,-0.29,-1.34,-0.53,1.47
14.677,-0.17,-1.48,-0.63,1.62
14.687,-0.05,-1.54,-0.73,1.70
14.697,0.08,-1.44,-0.79,1.65
14.707,0.27,-1.25,-0.87,1.55
14.717,0.51,-1.03,-1.00,1.52
14.727,0.76,-0.88,-1.08,1.59
14.737,1.01,-0.75,-1.12,1.68
14.747,1.22,-0.59,-1.10,1.75
14.757,1.29,-0.42,-0.99,1.67
14.767,1.12,-0.23,-0.82,1.41
14.777,0.82,0.03,-0.71,1.08
14.787,0.55,0.27,-0.79,1.00
14.797,0.42,0.48,-1.07,1.24
14.807,0.45,0.57,-1.43,1.60
14.817,0.56,0.54,-1.75,1.91
14.827,0.71,0.43,-1.93,2.10
14.837,0.83,0.19,-1.99,2.17
14.847,0.86,-0.15,-1.91,2.09
14.857,0.91,-0.41,-1.74,2.01
14.867,1.02,-0.42,-1.84,2.14
14.877,1.12,-0.35,-1.17,1.65
14.887,1.25,-0.29,-0.37,1.34
14.897,1.47,-0.14,-1.20,1.90
14.907,1.78,0.02,-2.10,2.75
14.917,2.14,0.16,-2.71,3.46
14.927,2.55,0.21,-3.27,4.16
14.937,2.98,0.06,-3.90,4.91
14.947,3.52,-0.15,-4.54,5.75
14.957,4.09,-0.30,-5.09,6.53
14.967,4.48,-0.32,-5.17,6.85
14.977,4.62,0.07,-4.51,6.46
14.987,4.43,0.86,-3.26,5.56
14.997,3.75,1.58,-2.20,4.62
15.007,2.61,2.13,-1.48,3.68
15.017,1.57,2.51,-0.72,3.05
15.027,0.90,2.65,-0.16,2.80
15.037,0.66,2.72,0.23,2.81
15.047,0.96,2.90,0.50,3.09
15.057,1.85,2.96,0.69,3.56
15.067,2.82,2.47,0.74,3.82
15.077,2.91,1.51,0.96,3.42
15.087,2.11,0.92,1.60,2.80
15.097,0.76,0.71,2.41,2.63
15.107,-0.92,0.44,3.01,3.18
15.117,-2.72,0.14,3.51,4.44
15.127,-4.60,-0.25,3.92,6.05
15.136,-6.30,-0.62,4.23,7.61
15.147,-7.52,-0.74,4.37,8.72
15.156,-8.00,-0.21,4.22,9.05
15.167,-7.89,0.19,3.61,8.68
15.177,-7.03,0.23,2.34,7.41
15.187,-5.58,0.09,1.29,5.73
15.197,-3.67,0.27,0.42,3.70
15.207,-1.01,1.24,-0.32,1.64
15.217,1.93,3.03,-0.20,3.60
15.227,4.10,5.07,0.77,6.57
15.237,5.90,6.65,1.89,9.09
15.247,7.74,6.85,2.42,10.62
15.257,9.15,5.59,2.69,11.05
15.267,9.24,2.85,2.84,10.08
15.277,8.06,-0.44,2.16,8.35
15.287,6.59,-2.97,1.09,7.31
15.297,5.23,-4.71,0.00,7.04
15.307,4.19,-5.51,-0.94,6.99
15.316,3.58,-5.66,-1.49,6.86
15.326,3.15,-5.33,-1.48,6.37
15.336,2.85,-4.52,-1.18,5.47
15.346,2.48,-3.74,-0.76,4.55
15.356,2.04,-2.91,-0.42,3.58
15.366,1.56,-1.91,-0.32,2.48
15.376,1.02,-0.72,-0.44,1.32
15.386,0.47,0.58,-0.51,0.91
15.396,-0.18,1.62,-0.12,1.64
15.406,-0.92,2.09,0.42,2.32
15.416,-1.50,1.85,1.08,2.61
15.426,-1.62,0.83,1.70,2.50
15.436,-1.14,-0.63,2.13,2.50
15.446,-0.50,-1.68,2.15,2.78
15.456,0.14,-2.18,1.90,2.90
15.466,0.77,-2.29,1.42,2.80
15.476,1.24,-2.09,0.68,2.52
15.486,1.46,-1.63,-0.09,2.19
15.496,1.67,-1.07,-0.69,2.10
15.506,2.09,-0.51,-1.19,2.46
15.516,2.71,0.08,-1.96,3.34
15.526,3.46,0.53,-3.24,4.77
15.536,4.26,0.61,-4.83,6.47
15.546,5.14,0.35,-5.54,7.56
15.556,6.25,0.24,-5.15,8.10
15.566,7.03,0.58,-4.30,8.26
15.576,6.30,1.49,-3.03,7.15
15.586,4.17,3.54,-1.03,5.57
15.596,1.00,6.35,1.52,6.61
15.606,-3.22,9.76,3.13,10.74
15.616,-6.50,12.69,4.05,14.82
15.627,-6.95,11.95,5.23,14.78
15.636,-3.62,5.34,4.82,8.05
15.646,-0.62,0.46,3.49,3.57
15.656,0.76,-2.30,3.58,4.32
15.666,1.58,-3.72,4.08,5.75
15.676,1.62,-3.27,4.53,5.82
15.686,0.94,-2.33,4.22,4.91
15.696,0.16,-2.19,2.99,3.71
15.706,-0.60,-2.19,1.84,2.93
15.716,-1.44,-2.30,1.04,2.90
15.726,-2.40,-2.43,-0.03,3.42
15.736,-3.84,-2.37,-0.96,4.61
15.746,-5.87,-2.50,-0.92,6.44
15.756,-7.86,-2.58,-0.18,8.28
15.766,-9.42,-1.89,0.26,9.61
15.776,-9.61,0.11,0.43,9.62
15.786,-7.93,2.33,1.23,8.36
15.796,-4.68,2.77,2.78,6.11
15.806,-2.30,1.85,2.56,3.91
15.816,-1.08,0.45,0.51,1.27
15.826,-0.26,-0.96,-2.26,2.47
15.836,0.59,-1.67,-4.50,4.84
15.846,1.48,-1.82,-5.17,5.68
15.856,2.26,-1.76,-4.37,5.22
15.866,2.78,-1.65,-2.66,4.19
15.876,3.03,-1.07,-1.14,3.40
15.886,3.00,-0.02,-0.19,3.00
15.896,2.41,0.86,0.12,2.56
15.906,1.49,1.56,-0.10,2.16
15.915,0.33,2.14,-0.40,2.20
15.926,-0.88,2.75,-0.69,2.97
15.936,-1.65,3.33,-0.62,3.77
15.946,-1.56,3.28,0.26,3.64
15.955,-1.02,2.17,1.29,2.73
15.966,-0.38,0.46,1.14,1.28
15.975,0.48,-1.18,0.13,1.29
15.985,1.24,-2.43,-0.82,2.85
15.995,1.65,-3.14,-2.03,4.09
16.005,1.80,-3.29,-3.50,5.13
16.015,1.71,-3.11,-4.75,5.92
16.026,1.55,-2.75,-5.26,6.13
16.035,1.49,-2.32,-4.73,5.47
16.045,1.52,-1.89,-3.39,4.16
16.055,1.61,-1.48,-2.06,3.01
16.065,1.70,-1.08,-1.21,2.35
16.075,1.81,-0.46,-0.90,2.07
16.085,1.87,0.48,-0.84,2.11
16.095,1.82,1.75,-0.67,2.61
16.105,1.65,3.24,-0.30,3.65
16.115,1.23,4.82,0.20,4.98
16.125,0.44,6.28,0.55,6.32
16.135,-0.47,7.51,0.51,7.55
16.145,-1.07,8.41,0.25,8.48
16.155,-0.55,8.47,-0.02,8.49
16.165,1.55,7.47,-0.34,7.64
16.175,3.56,6.51,-0.85,7.47
16.185,4.46,5.63,-0.99,7.25
16.195,4.49,5.00,-0.82,6.77
16.205,3.79,5.13,-0.68,6.42
16.215,2.39,5.90,-0.37,6.38
16.225,0.74,6.64,0.07,6.68
16.235,-0.46,7.22,0.61,7.26
16.245,-1.05,7.33,0.96,7.47
16.255,-1.35,6.43,0.99,6.65
16.265,-1.40,4.63,0.86,4.91
16.275,-1.17,2.78,0.60,3.07
16.285,-0.96,0.92,0.42,1.39
16.295,-0.81,-0.99,0.38,1.33
16.305,-0.57,-2.56,0.28,2.64
16.315,-0.20,-4.00,0.25,4.02
16.325,0.25,-5.35,0.34,5.37
16.335,0.62,-6.33,0.49,6.38
16.345,0.77,-6.91,0.49,6.97
16.355,0.74,-7.27,0.47,7.32
16.365,0.62,-7.47,0.37,7.50
16.375,0.54,-7.77,0.01,7.79
16.385,0.68,-7.85,-0.29,7.89
16.395,0.97,-7.14,-0.22,7.21
16.405,1.21,-6.09,0.05,6.21
16.415,1.46,-5.11,0.40,5.33
16.425,1.67,-4.03,0.61,4.40
16.435,1.86,-2.79,0.51,3.40
16.445,2.04,-1.21,0.29,2.39
16.455,1.99,0.75,0.17,2.14
16.464,1.76,2.94,0.10,3.43
16.475,1.37,4.77,-0.04,4.96
16.485,0.99,5.99,-0.17,6.07
16.494,1.01,6.64,-0.27,6.72
16.505,1.31,5.25,-0.03,5.41
16.514,1.53,2.76,0.67,3.23
16.525,1.69,0.88,1.38,2.35
16.535,1.84,-0.67,1.55,2.50
16.545,1.97,-1.91,1.39,3.07
16.555,1.88,-2.70,0.94,3.42
16.565,1.47,-2.81,0.47,3.21
16.575,0.74,-2.35,0.08,2.46
16.585,0.00,-1.94,-0.30,1.97
16.595,-0.38,-1.91,-0.32,1.97
16.604,-0.26,-2.08,-0.10,2.10
16.614,0.28,-2.30,0.08,2.32
16.625,0.98,-2.25,0.13,2.46
16.635,1.57,-1.99,0.32,2.55
16.644,1.89,-1.62,0.59,2.56
16.654,1.97,-1.15,0.78,2.41
16.664,1.87,-0.70,0.70,2.11
16.674,1.70,-0.35,0.44,1.79
16.684,1.58,-0.42,0.12,1.64
16.694,1.41,-0.73,-0.08,1.59
16.704,1.24,-1.23,-0.24,1.76
16.714,1.16,-1.83,-0.26,2.18
16.724,1.13,-2.21,-0.22,2.50
16.734,1.10,-2.56,-0.26,2.80
16.744,1.10,-2.94,-0.39,3.16
16.754,1.14,-3.31,-0.53,3.54
16.764,1.16,-3.46,-0.57,3.70
16.774,1.18,-3.27,-0.58,3.52
16.784,1.26,-2.89,-0.64,3.22
16.794,1.40,-2.43,-0.73,2.89
16.804,1.54,-1.81,-0.87,2.53
16.814,1.69,-1.09,-1.06,2.27
16.824,1.86,-0.22,-1.31,2.29
16.834,2.09,0.76,-1.34,2.59
16.844,2.43,2.07,-0.43,3.22
16.854,2.87,3.47,0.56,4.54
16.864,3.07,4.62,1.12,5.66
16.874,2.68,6.08,1.08,6.73
16.884,1.25,7.75,0.50,7.87
16.894,-1.12,8.61,-0.16,8.68
16.904,-2.78,8.36,-0.56,8.83
16.914,-3.46,7.86,-0.90,8.64
16.924,-3.41,7.00,-1.25,7.88
16.934,-1.77,5.50,-1.07,5.88
16.944,0.75,3.91,-0.28,3.99
16.954,2.39,3.04,0.49,3.90
16.964,3.14,2.40,0.51,3.99
16.974,3.61,1.86,-0.25,4.07
16.984,3.79,1.19,-1.07,4.12
16.994,3.41,0.56,-1.16,3.64
17.004,2.62,0.04,-0.40,2.65
17.014,1.81,-0.40,0.72,1.99
17.024,1.18,-1.06,1.52,2.19
17.034,0.62,-1.92,1.68,2.63
17.044,0.02,-2.74,1.38,3.06
17.054,-0.59,-3.43,0.87,3.59
17.064,-1.16,-4.05,0.46,4.24
17.074,-1.70,-4.66,0.21,4.96
17.084,-2.21,-5.14,0.07,5.60
17.094,-2.68,-5.51,0.09,6.13
17.104,-3.14,-5.68,0.26,6.50
17.114,-3.53,-5.54,0.44,6.58
17.124,-3.80,-4.97,0.43,6.28
17.134,-3.85,-3.90,0.22,5.49
17.144,-3.65,-2.56,0.08,4.46
17.154,-3.22,-1.36,0.20,3.51
17.164,-2.71,-0.35,0.54,2.79
17.174,-2.25,0.65,0.65,2.43
17.184,-1.71,1.60,0.49,2.39
17.194,-1.01,2.43,0.33,2.66
17.204,-0.14,2.83,0.43,2.87
17.213,0.72,2.48,0.73,2.69
17.223,1.30,1.57,0.92,2.24
17.234,1.55,0.60,1.01,1.95
17.243,1.63,-0.32,0.85,1.86
17.253,1.65,-1.09,0.43,2.02
17.264,1.58,-1.63,-0.11,2.27
17.273,1.34,-2.07,-0.60,2.54
17.283,0.96,-2.45,-1.00,2.82
17.293,0.56,-2.63,-1.26,2.97
17.303,0.20,-2.63,-1.36,2.96
17.313,-0.21,-2.53,-1.25,2.83
17.323,-0.64,-2.46,-0.94,2.71
17.333,-1.04,-2.35,-0.49,2.61
17.344,-1.41,-2.15,0.05,2.57
17.353,-1.82,-1.94,0.62,2.73
17.363,-2.07,-1.60,1.08,2.83
17.373,-2.12,-1.02,1.43,2.75
17.383,-1.96,-0.39,1.47,2.47
17.393,-1.66,0.07,1.11,2.00
17.403,-1.28,0.21,0.29,1.33
17.413,-0.82,-0.01,-0.71,1.08
17.423,-0.30,-0.43,-1.56,1.64
17.433,0.20,-0.83,-2.01,2.18
17.443,0.68,-1.12,-2.00,2.39
17.453,1.04,-1.35,-1.75,2.44
17.463,1.14,-1.51,-1.45,2.38
17.473,0.94,-1.46,-1.17,2.09
17.483,0.72,-1.30,-1.09,1.84
17.493,0.68,-1.25,-1.09,1.80
17.503,0.74,-1.26,-1.12,1.85
17.513,0.82,-1.19,-1.17,1.86
17.523,0.80,-0.88,-1.18,1.67
17.533,0.60,-0.21,-1.12,1.29
17.543,0.23,0.88,-0.90,1.28
17.553,-0.36,2.41,-0.56,2.50
17.563,-1.13,4.35,-0.36,4.51
17.573,-2.03,6.72,0.22,7.02
17.583,-2.58,9.52,1.22,9.94
17.593,-1.80,12.15,1.54,12.38
17.604,0.70,11.96,1.62,12.09
17.613,2.76,7.93,1.92,8.62
17.623,3.00,4.48,1.78,5.68
17.633,1.93,2.89,0.99,3.61
17.643,-0.06,3.03,-0.18,3.03
17.653,-2.17,3.82,-1.08,4.53
17.663,-3.53,4.84,-1.78,6.26
17.673,-3.85,5.74,-2.09,7.22
17.683,-3.54,5.70,-1.43,6.86
17.693,-3.25,4.54,0.18,5.59
17.703,-2.99,3.29,0.55,4.48
17.713,-2.69,2.28,0.54,3.57
17.723,-2.26,1.28,0.48,2.64
17.733,-1.69,0.36,0.42,1.78
17.743,-1.26,-0.50,0.50,1.44
17.753,-0.89,-1.33,0.51,1.68
17.763,-0.37,-2.24,0.49,2.33
17.773,0.20,-3.19,0.48,3.23
17.783,0.71,-4.17,0.56,4.27
17.793,1.08,-5.10,0.68,5.26
17.803,1.30,-6.04,0.80,6.23
17.813,1.38,-6.91,0.76,7.09
17.822,1.40,-7.60,0.46,7.75
17.833,1.38,-7.90,-0.27,8.03
17.843,1.47,-7.68,-1.38,7.94
17.853,1.72,-7.11,-2.52,7.74
17.863,1.99,-6.49,-3.14,7.48
17.872,2.14,-5.77,-3.14,6.91
17.883,2.16,-4.63,-2.61,5.74
17.893,2.16,-2.72,-2.01,4.01
17.903,2.30,-0.34,-1.62,2.84
17.912,2.37,2.16,-0.82,3.31
17.922,2.35,4.16,0.18,4.78
17.932,1.88,5.60,0.81,5.97
17.942,0.58,7.38,1.33,7.52
17.952,-0.90,8.23,2.13,8.55
17.962,-1.35,6.56,3.04,7.35
17.972,-0.74,3.83,3.01,4.93
17.982,-0.37,1.81,2.63,3.21
17.992,-0.33,0.19,2.47,2.50
18.002,-0.38,-0.91,2.07,2.29
18.012,-0.43,-1.50,1.32,2.05
18.022,-0.37,-1.84,0.68,2.00
18.032,-0.29,-2.20,0.16,2.22
18.042,-0.35,-2.49,-0.30,2.53
18.052,-0.53,-2.80,-0.80,2.96
18.062,-0.57,-3.19,-1.36,3.52
18.072,-0.26,-3.26,-1.67,3.67
18.082,0.35,-2.80,-1.63,3.26
18.092,1.05,-2.23,-1.38,2.83
18.102,1.63,-1.94,-0.87,2.68
18.112,1.96,-1.73,-0.17,2.62
18.122,2.08,-1.41,0.56,2.57
18.132,2.10,-0.96,1.13,2.58
18.142,1.95,-0.55,1.28,2.39
18.152,1.61,-0.45,0.99,1.94
18.162,1.16,-0.68,0.53,1.45
18.172,0.86,-1.20,0.06,1.47
18.182,0.80,-1.85,-0.29,2.04
18.192,0.84,-2.55,-0.56,2.74
18.202,0.80,-3.27,-0.91,3.49
18.212,0.72,-3.82,-1.29,4.09
18.222,0.61,-4.07,-1.70,4.46
18.232,0.51,-3.98,-2.09,4.52
18.242,0.46,-3.57,-2.38,4.31
18.252,0.51,-2.93,-2.62,3.96
18.262,0.65,-2.15,-2.86,3.64
18.272,0.97,-1.16,-3.07,3.42
18.282,1.59,0.11,-2.69,3.12
18.292,2.69,1.96,-1.04,3.49
18.302,4.26,4.09,0.80,5.96
18.312,5.16,6.60,2.79,8.84
18.322,3.77,10.03,2.98,11.12
18.332,0.10,12.55,1.45,12.63
18.343,-3.30,12.93,0.86,13.37
18.352,-5.03,12.06,1.17,13.12
18.362,-6.34,9.41,0.66,11.36
18.372,-5.63,6.11,-0.89,8.36
18.382,-2.44,2.42,-0.57,3.48
18.392,0.68,0.84,0.35,1.14
18.401,2.08,-0.01,0.52,2.15
18.411,2.62,-0.67,-0.12,2.70
18.422,2.59,-1.28,-1.20,3.13
18.432,2.13,-1.86,-1.87,3.39
18.442,1.25,-2.00,-1.47,2.78
18.452,0.34,-1.26,-0.12,1.31
18.461,-0.01,-0.65,1.04,1.23
18.472,-0.23,-0.97,1.53,1.82
18.482,-0.65,-1.77,1.56,2.45
18.492,-1.13,-2.42,1.48,3.05
18.502,-1.64,-2.79,1.30,3.49
18.512,-2.36,-3.14,1.12,4.08
18.522,-3.31,-3.52,1.12,4.96
18.532,-4.39,-3.94,1.24,6.02
18.542,-5.30,-4.31,1.40,6.97
18.551,-5.74,-4.43,1.28,7.36
18.561,-5.45,-4.27,0.66,6.96
18.571,-4.05,-4.12,0.00,5.78
18.581,-2.26,-3.77,-0.43,4.42
18.591,-0.98,-3.14,-0.68,3.36
18.601,-0.39,-2.35,-0.74,2.49
18.611,-0.34,-1.19,-0.72,1.43
18.621,-0.43,0.15,-0.59,0.75
18.631,-0.08,1.37,-0.55,1.48
18.641,0.69,2.17,-0.40,2.31
18.651,1.58,2.47,0.05,2.94
18.661,2.19,1.96,0.62,3.01
18.671,2.39,1.16,1.14,2.89
18.681,2.28,0.42,1.24,2.63
18.691,2.05,-0.13,0.83,2.22
18.701,1.72,-0.52,0.19,1.80
18.711,1.26,-0.90,-0.37,1.60
18.721,0.84,-1.25,-0.74,1.68
18.731,0.57,-1.50,-0.91,1.84
18.741,0.35,-1.63,-0.92,1.90
18.751,0.08,-1.61,-0.71,1.76
18.761,-0.24,-1.54,-0.49,1.64
18.771,-0.51,-1.54,-0.24,1.64
18.781,-0.72,-1.52,0.16,1.69
18.791,-0.92,-1.51,0.67,1.89
18.801,-1.09,-1.48,1.11,2.15
18.811,-1.14,-1.36,1.17,2.12
18.821,-1.13,-1.38,0.90,1.99
18.831,-1.06,-1.40,0.33,1.79
18.841,-0.86,-1.26,-0.45,1.59
18.851,-0.44,-1.12,-1.47,1.90
18.861,0.21,-1.12,-2.41,2.67
18.871,0.95,-1.22,-2.92,3.31
18.881,1.52,-1.38,-2.94,3.59
18.891,1.77,-1.54,-2.46,3.40
18.901,1.56,-1.63,-1.81,2.89
18.911,1.18,-1.51,-1.49,2.43
18.921,0.91,-1.31,-1.40,2.12
18.931,0.82,-1.19,-1.28,1.93
18.941,0.92,-0.99,-1.26,1.84
18.951,1.10,-0.52,-1.34,1.81
18.961,1.21,0.30,-1.38,1.86
18.971,1.14,1.46,-1.31,2.27
18.981,0.85,2.88,-1.11,3.20
18.991,0.14,4.62,-0.92,4.71
19.001,-0.97,6.70,-0.57,6.79
19.011,-2.26,9.11,0.68,9.41
19.021,-3.03,11.18,2.21,11.79
19.031,-2.21,12.02,2.35,12.45
19.041,0.38,9.98,1.98,10.18
19.051,2.32,6.14,1.66,6.76
19.061,2.61,3.39,1.13,4.43
19.071,1.55,2.20,0.19,2.70
19.081,-0.47,2.32,-0.83,2.51
19.091,-2.62,2.93,-1.45,4.19
19.101,-4.00,3.90,-2.06,5.95
19.111,-4.60,4.54,-2.14,6.81
19.121,-4.54,4.37,-1.34,6.45
19.130,-3.94,3.25,0.02,5.11
19.140,-2.94,1.82,0.72,3.53
19.150,-1.95,0.93,0.25,2.18
19.160,-1.14,0.32,-0.19,1.20
19.170,-0.54,-0.30,-0.29,0.68
19.180,-0.08,-1.07,-0.31,1.11
19.190,0.32,-1.97,-0.30,2.02
19.201,0.76,-3.00,-0.26,3.11
19.211,1.27,-4.05,-0.06,4.24
19.221,1.61,-4.91,0.38,5.18
19.231,1.72,-5.62,0.85,5.93
19.240,1.72,-6.22,1.31,6.58
19.250,1.58,-6.61,1.52,6.96
19.261,1.45,-6.65,0.90,6.87
19.270,1.46,-6.42,-0.22,6.59
19.280,1.44,-6.31,-0.77,6.52
19.290,1.26,-5.89,-0.66,6.06
19.300,0.93,-4.90,-0.21,4.99
19.310,0.56,-3.51,-0.27,3.57
19.320,0.18,-1.87,-0.63,1.98
19.330,-0.21,-0.02,-1.00,1.02
19.340,-0.63,2.18,-0.92,2.45
19.350,-0.85,4.53,-0.60,4.65
19.360,-0.97,6.30,-0.48,6.39
19.370,-1.07,7.26,0.29,7.34
19.380,-1.04,5.85,1.81,6.21
19.390,-0.70,2.92,3.07,4.29
19.400,-0.54,1.17,3.52,3.75
19.410,-0.40,-0.03,2.91,2.93
19.421,-0.29,-1.00,1.88,2.15
19.430,-0.28,-1.53,1.00,1.85
19.440,-0.14,-1.73,0.12,1.74
19.450,-0.05,-1.78,-0.51,1.85
19.460,-0.14,-1.86,-0.71,1.99
19.470,-0.20,-1.97,-0.72,2.11
19.480,-0.09,-2.04,-0.75,2.18
19.490,0.18,-1.97,-0.77,2.12
19.500,0.51,-1.74,-0.68,1.93
19.510,0.84,-1.51,-0.35,1.77
19.520,1.09,-1.54,0.11,1.89
19.530,1.17,-1.62,0.45,2.05
19.540,1.16,-1.56,0.70,2.06
19.550,1.15,-1.39,0.83,1.99
19.560,1.26,-1.49,0.72,2.08
19.570,1.38,-1.83,0.49,2.34
19.580,1.41,-2.13,0.15,2.56
19.590,1.46,-2.42,-0.22,2.83
19.600,1.48,-2.64,-0.57,3.08
19.610,1.43,-2.93,-1.00,3.41
19.620,1.32,-3.23,-1.46,3.79
19.630,1.12,-3.37,-1.90,4.03
19.640,0.97,-3.19,-2.31,4.05
19.650,1.00,-2.66,-2.62,3.86
19.660,1.21,-1.85,-3.08,3.79
19.670,1.71,-0.88,-3.56,4.04
19.680,2.39,0.42,-3.15,3.98
19.690,3.34,2.30,-1.38,4.28
19.700,4.79,4.56,1.10,6.70
19.710,5.52,7.43,3.15,9.78
19.720,4.17,10.48,2.95,11.65
19.730,0.65,11.70,1.82,11.86
19.741,-2.75,11.99,2.15,12.49
19.750,-5.14,11.52,2.07,12.78
19.760,-6.74,8.58,0.84,10.94
19.769,-5.35,4.41,0.21,6.93
19.780,-2.16,1.52,0.69,2.73
19.790,0.25,0.63,0.77,1.03
19.800,1.75,-0.42,0.09,1.80
19.809,2.62,-1.48,-0.94,3.16
19.820,3.18,-2.60,-2.12,4.62
19.830,3.57,-3.76,-2.62,5.81
19.840,3.30,-4.26,-1.70,5.65
19.850,2.27,-3.67,-0.34,4.33
19.860,0.90,-3.13,0.51,3.29
19.869,-0.14,-3.41,0.67,3.48
19.880,-0.84,-3.67,0.64,3.82
19.890,-1.46,-3.56,0.72,3.92
19.899,-2.20,-3.17,0.75,3.93
19.909,-3.18,-2.66,0.70,4.21
19.919,-4.35,-2.15,0.65,4.89
19.929,-5.38,-1.62,0.84,5.69
19.939,-5.86,-1.16,1.09,6.08
19.949,-5.57,-1.16,1.26,5.82
19.959,-4.15,-2.16,1.52,4.92
19.969,-2.43,-3.40,1.58,4.47
19.979,-1.27,-3.82,1.39,4.26
19.989,-0.73,-3.43,1.02,3.65
19.999,-0.71,-2.32,0.48,2.48
20.009,-0.90,-0.67,-0.37,1.18
20.019,-0.69,0.93,-1.23,1.69
20.029,0.07,2.14,-1.66,2.71
20.039,1.12,2.79,-1.38,3.30
20.049,2.09,2.73,-0.38,3.45
20.059,2.65,1.90,0.87,3.38
20.069,2.59,0.54,1.66,3.12
20.079,2.21,-0.82,1.73,2.92
20.089,1.85,-1.87,1.32,2.94
20.099,1.40,-2.69,0.73,3.12
20.109,0.82,-3.25,0.11,3.36
20.119,0.21,-3.46,-0.36,3.49
20.129,-0.38,-3.36,-0.67,3.45
20.139,-0.99,-3.11,-0.78,3.36
20.149,-1.62,-2.76,-0.78,3.29
20.159,-2.26,-2.41,-0.65,3.36
20.169,-2.78,-2.14,-0.39,3.53
20.179,-3.04,-1.77,-0.02,3.52
20.189,-2.93,-1.24,0.34,3.20
20.199,-2.49,-0.75,0.41,2.63
20.209,-1.90,-0.50,0.19,1.97
20.219,-1.22,-0.46,-0.24,1.32
20.229,-0.53,-0.51,-0.87,1.14
20.239,0.07,-0.48,-1.64,1.71
20.249,0.58,-0.23,-2.35,2.44
20.259,0.95,0.08,-2.69,2.85
20.269,1.18,0.21,-2.51,2.78
20.279,1.31,0.16,-1.93,2.33
20.289,1.44,-0.04,-1.32,1.96
20.299,1.49,-0.33,-0.85,1.75
20.309,1.40,-0.60,-0.66,1.66
20.319,1.25,-0.72,-0.76,1.63
20.329,1.06,-0.68,-0.97,1.59
20.339,0.81,-0.45,-1.23,1.54
20.349,0.51,0.00,-1.31,1.40
20.359,0.08,0.70,-1.25,1.44
20.369,-0.58,1.66,-1.08,2.06
20.379,-1.40,2.75,-0.31,3.10
20.389,-1.99,3.77,0.97,4.38
20.399,-1.74,5.08,1.56,5.59
20.409,-0.16,6.41,1.18,6.52
20.418,2.06,6.57,0.72,6.92
20.429,3.25,5.43,0.79,6.38
20.438,2.23,4.21,1.13,4.89
20.449,-0.07,4.04,0.71,4.10
20.458,-1.98,4.53,-0.09,4.94
20.468,-3.02,5.44,-0.68,6.27
20.479,-3.32,6.64,-1.04,7.50
20.488,-3.08,7.60,-0.89,8.25
20.499,-2.79,7.61,-0.66,8.13
20.509,-2.93,6.28,-0.55,6.95
20.518,-3.16,4.71,-0.28,5.68
20.529,-3.16,3.73,0.06,4.89
20.538,-2.76,3.17,0.50,4.23
20.548,-2.07,2.20,0.86,3.14
20.558,-1.26,0.92,1.06,1.89
20.568,-0.61,-0.16,0.86,1.07
20.578,-0.02,-1.19,0.49,1.29
20.588,0.52,-2.17,0.20,2.24
20.599,1.06,-3.12,0.08,3.29
20.608,1.65,-4.05,0.01,4.37
20.618,2.14,-4.91,-0.06,5.36
20.628,2.44,-5.84,-0.18,6.33
20.638,2.60,-6.68,-0.48,7.19
20.648,2.65,-7.30,-0.86,7.82
20.658,2.61,-7.66,-1.23,8.18
20.668,2.60,-7.78,-1.71,8.37
20.678,2.60,-7.61,-2.27,8.36
20.688,2.52,-7.04,-2.72,7.96
20.698,2.34,-6.11,-2.97,7.18
20.708,2.13,-4.82,-2.90,6.01
20.718,1.92,-3.36,-2.61,4.66
20.728,1.79,-1.52,-2.20,3.22
20.738,1.68,0.73,-1.76,2.54
20.748,1.44,3.24,-1.18,3.74
20.758,0.81,5.85,-0.27,5.91
20.768,0.00,7.98,0.91,8.03
20.778,-0.75,8.02,1.91,8.28
20.788,-0.86,5.15,3.12,6.08
20.798,-0.40,2.70,3.85,4.72
20.808,0.10,1.70,3.58,3.96
20.818,0.37,1.15,3.12,3.35
20.828,0.26,0.81,2.57,2.71
20.838,-0.02,0.74,1.76,1.91
20.848,-0.28,0.70,1.03,1.27
20.858,-0.37,0.42,0.56,0.79
20.868,-0.44,-0.11,0.28,0.53
20.878,-0.52,-0.91,-0.08,1.05
20.888,-0.61,-1.81,-0.50,1.98
20.898,-0.67,-2.74,-0.86,2.95
20.908,-0.63,-3.47,-1.05,3.68
20.918,-0.50,-3.73,-0.95,3.88
20.928,-0.30,-3.43,-0.62,3.50
20.938,-0.03,-2.81,-0.49,2.85
20.948,0.18,-2.14,-0.42,2.19
20.958,0.34,-1.55,-0.02,1.59
20.968,0.55,-1.08,0.51,1.31
20.978,0.78,-0.73,0.87,1.38
20.988,0.99,-0.45,0.98,1.47
20.998,1.10,-0.37,0.92,1.48
21.008,1.03,-0.47,0.73,1.35
21.018,0.92,-0.74,0.44,1.26
21.028,0.95,-1.21,0.23,1.56
21.038,0.96,-1.77,0.08,2.01
21.048,0.86,-2.37,-0.20,2.53
21.058,0.72,-3.01,-0.60,3.16
21.068,0.56,-3.42,-1.01,3.61
21.078,0.50,-3.67,-1.48,3.99
21.087,0.54,-3.83,-1.85,4.29
21.098,0.63,-3.80,-2.05,4.36
21.108,0.77,-3.53,-2.08,4.17
21.118,0.97,-3.09,-2.08,3.85
21.128,1.18,-2.46,-2.05,3.41
21.137,1.42,-1.52,-1.65,2.65
21.148,1.79,-0.30,-0.69,1.94
21.157,2.52,0.74,0.28,2.64
21.167,2.83,2.72,1.92,4.37
21.177,1.97,6.35,2.79,7.21
21.187,-0.29,9.96,1.12,10.03
21.197,-2.42,11.44,-0.91,11.73
21.208,-3.47,11.32,-1.11,11.89
21.219,-4.06,10.10,-0.22,10.89
21.228,-4.44,8.03,0.48,9.19
21.237,-3.47,5.63,0.22,6.62
21.247,-1.44,3.99,0.49,4.27
21.257,0.58,3.54,0.67,3.65
21.267,1.90,2.64,-0.03,3.25
21.277,2.61,1.72,-1.02,3.28
21.287,2.62,1.03,-1.90,3.40
21.297,2.14,0.47,-2.25,3.14
21.307,1.41,0.36,-1.56,2.13
21.317,0.87,0.68,-0.05,1.10
21.327,0.78,0.65,1.16,1.54
21.337,0.68,0.34,1.77,1.93
21.347,0.32,0.08,1.81,1.84
21.357,-0.07,-0.26,1.57,1.59
21.367,-0.38,-0.89,1.41,1.71
21.377,-0.56,-1.84,1.30,2.32
21.387,-0.63,-3.03,1.15,3.30
21.397,-0.72,-4.30,0.94,4.46
21.407,-0.96,-5.34,0.79,5.49
21.417,-1.35,-5.93,0.65,6.11
21.427,-1.76,-6.03,0.39,6.30
21.437,-2.14,-5.77,0.04,6.16
21.447,-2.47,-5.20,-0.26,5.77
21.457,-2.82,-4.35,-0.29,5.19
21.467,-3.11,-3.21,-0.21,4.47
21.477,-3.23,-1.79,-0.18,3.70
21.487,-3.22,-0.29,-0.30,3.25
21.497,-2.98,1.18,-0.48,3.24
21.507,-2.36,2.47,-0.49,3.45
21.517,-1.30,3.17,-0.09,3.43
21.527,-0.02,2.57,0.62,2.65
21.537,1.03,1.32,1.09,2.00
21.547,1.57,0.15,1.32,2.05
21.557,1.66,-0.89,1.36,2.32
21.567,1.45,-1.58,0.98,2.36
21.577,1.11,-1.84,0.10,2.16
21.587,0.74,-1.86,-0.81,2.16
21.597,0.48,-1.55,-1.35,2.11
21.607,0.34,-1.08,-1.45,1.84
21.617,0.30,-0.79,-1.35,1.59
21.627,0.25,-0.66,-1.15,1.35
21.637,0.09,-0.82,-0.86,1.19
21.647,-0.24,-1.12,-0.41,1.21
21.657,-0.63,-1.28,0.21,1.44
21.667,-0.97,-1.26,0.85,1.80
21.677,-1.13,-1.05,1.32,2.03
21.687,-1.14,-0.80,1.43,1.99
21.697,-1.03,-0.63,1.20,1.70
21.707,-0.86,-0.53,0.67,1.21
21.717,-0.71,-0.45,0.14,0.85
21.727,-0.61,-0.39,-0.35,0.80
21.737,-0.48,-0.37,-0.82,1.02
21.747,-0.34,-0.37,-1.18,1.28
21.757,-0.18,-0.42,-1.40,1.47
21.767,0.06,-0.57,-1.51,1.61
21.777,0.37,-0.89,-1.49,1.77
21.787,0.72,-1.29,-1.30,1.97
21.796,0.94,-1.58,-0.99,2.09
21.806,0.79,-1.57,-0.91,1.98
21.817,0.27,-1.35,-1.03,1.72
21.826,-0.15,-1.22,-1.26,1.77
21.836,-0.34,-1.19,-1.43,1.89
21.846,-0.44,-1.13,-1.41,1.86
21.856,-0.55,-1.04,-1.20,1.68
21.866,-0.65,-0.92,-0.90,1.44
21.876,-0.78,-0.76,-0.59,1.23
21.886,-0.98,-0.48,-0.31,1.13
21.896,-1.32,0.09,0.02,1.32
21.906,-1.72,1.01,0.42,2.04
21.916,-1.90,2.16,0.81,2.99
21.926,-1.55,3.61,0.80,4.01
21.936,-0.24,5.29,0.21,5.30
21.946,1.84,6.35,-0.30,6.61
21.956,3.46,5.92,0.01,6.85
21.966,3.16,4.35,0.91,5.45
21.976,0.84,3.38,0.95,3.61
21.986,-1.57,3.61,0.22,3.94
21.996,-3.01,4.38,-0.52,5.34
22.006,-3.52,5.36,-1.01,6.49
22.016,-3.48,6.20,-1.03,7.19
22.026,-3.38,6.78,-0.87,7.63
22.036,-3.54,6.58,-0.74,7.51
22.046,-3.72,5.69,-0.44,6.82
22.056,-3.61,4.95,-0.29,6.13
22.066,-3.00,4.59,-0.13,5.49
22.076,-2.15,4.15,0.11,4.68
22.086,-1.43,3.33,0.25,3.63
22.096,-0.78,2.27,0.42,2.43
22.106,-0.18,1.07,0.48,1.19
22.116,0.32,-0.28,0.49,0.65
22.126,0.90,-1.52,0.54,1.85
22.136,1.47,-2.65,0.62,3.10
22.146,2.08,-3.67,0.56,4.26
22.156,2.62,-4.61,0.28,5.31
22.166,2.94,-5.42,-0.10,6.17
22.176,3.06,-6.13,-0.51,6.87
22.186,2.97,-6.72,-0.96,7.41
22.196,2.73,-7.14,-1.32,7.76
22.206,2.51,-7.33,-1.61,7.91
22.216,2.35,-7.22,-1.81,7.80
22.226,2.18,-6.73,-1.93,7.33
22.236,1.93,-5.90,-1.94,6.50
22.246,1.62,-4.75,-1.65,5.28
22.256,1.11,-3.27,-0.85,3.55
22.266,0.56,-1.40,-0.19,1.52
22.276,0.01,1.01,0.25,1.04
22.286,-0.52,4.05,0.40,4.10
22.296,-1.08,7.52,0.25,7.60
22.306,-1.39,9.24,0.81,9.38
22.316,-1.01,6.97,1.49,7.20
22.326,-0.11,2.81,2.42,3.71
22.336,0.46,0.04,3.33,3.36
22.346,0.85,-1.15,3.56,3.84
22.355,0.95,-1.35,2.95,3.39
22.366,0.37,-0.87,2.16,2.36
22.375,-0.29,-0.38,1.09,1.19
22.386,-0.46,-0.36,0.25,0.63
22.396,-0.18,-0.68,-0.16,0.72
22.405,0.28,-1.14,-0.22,1.19
22.416,0.65,-1.59,-0.00,1.72
22.426,0.78,-2.22,0.15,2.36
22.436,0.78,-2.88,0.00,2.98
22.446,0.72,-3.44,-0.40,3.54
22.455,0.69,-3.71,-0.79,3.86
22.465,0.70,-3.55,-0.94,3.74
22.475,0.83,-3.06,-0.78,3.26
22.485,1.07,-2.44,-0.70,2.75
22.495,1.21,-1.74,-0.56,2.20
22.505,1.19,-1.04,-0.09,1.58
22.515,1.09,-0.39,0.45,1.24
22.526,0.98,0.21,0.90,1.35
22.535,0.89,0.67,1.03,1.52
22.545,0.78,0.87,0.90,1.48
22.555,0.57,0.86,0.61,1.20
22.565,0.36,0.71,0.38,0.88
22.575,0.25,0.36,0.24,0.50
22.585,0.26,-0.29,0.13,0.41
22.595,0.21,-0.99,-0.04,1.01
22.605,0.14,-1.62,-0.32,1.66
22.615,0.04,-2.09,-0.65,2.19
22.625,0.03,-2.42,-1.04,2.64
22.635,0.18,-2.69,-1.34,3.01
22.645,0.48,-2.83,-1.52,3.25
22.655,0.87,-2.79,-1.52,3.29
22.665,1.23,-2.51,-1.42,3.13
22.675,1.53,-2.17,-1.38,2.99
22.685,1.76,-1.85,-1.40,2.91
22.695,1.88,-1.52,-1.35,2.77
22.705,1.94,-1.18,-1.01,2.48
22.715,2.11,-1.08,-0.51,2.43
22.725,2.30,-1.03,0.30,2.54
22.735,1.94,0.16,1.93,2.74
22.745,1.11,1.91,2.67,3.47
22.755,-0.31,3.72,1.79,4.14
22.765,-1.74,5.17,0.53,5.49
22.775,-2.06,5.41,-0.40,5.80
22.785,-1.95,5.05,-0.69,5.46
22.795,-2.19,4.77,-0.44,5.27
22.805,-2.21,4.66,-0.46,5.18
22.815,-1.77,3.87,-0.54,4.29
22.825,-0.98,2.70,-0.44,2.91
22.835,0.07,2.78,-0.22,2.79
22.845,1.51,3.34,-0.48,3.69
22.855,2.91,3.53,-1.34,4.77
22.865,3.56,3.56,-2.48,5.61
22.875,3.15,4.12,-3.28,6.14
22.885,1.94,5.05,-2.78,6.08
22.895,0.59,5.69,-0.66,5.76
22.905,-0.57,5.62,1.22,5.77
22.915,-1.30,5.54,1.86,5.99
22.925,-1.73,5.52,1.55,5.99
22.935,-1.93,4.74,1.07,5.23
22.945,-1.61,2.94,0.79,3.45
22.955,-1.01,0.88,0.63,1.48
22.965,-0.79,-1.13,0.57,1.49
22.975,-0.78,-2.84,0.35,2.97
22.985,-0.71,-3.96,-0.03,4.02
22.995,-0.53,-4.53,-0.37,4.58
23.005,-0.33,-4.93,-0.58,4.97
23.015,-0.18,-5.27,-0.59,5.31
23.025,-0.18,-5.44,-0.41,5.46
23.035,-0.32,-5.49,-0.16,5.50
23.045,-0.58,-5.39,0.08,5.42
23.055,-0.95,-5.04,0.28,5.13
23.065,-1.44,-4.35,0.43,4.60
23.075,-2.01,-3.34,0.54,3.93
23.084,-2.50,-2.03,0.50,3.26
23.095,-2.72,-0.62,0.30,2.80
23.104,-2.53,0.62,0.22,2.61
23.114,-2.01,1.36,0.49,2.48
23.124,-1.37,1.21,0.93,2.05
23.134,-0.92,0.18,1.10,1.45
23.144,-0.64,-0.66,0.90,1.29
23.154,-0.39,-0.89,0.61,1.15
23.164,-0.10,-0.85,0.43,0.95
23.174,0.27,-0.74,0.28,0.84
23.184,0.61,-0.63,0.06,0.88
23.194,0.83,-0.55,-0.22,1.02
23.204,0.94,-0.55,-0.57,1.23
23.214,0.93,-0.58,-0.74,1.32
23.224,0.89,-0.56,-0.68,1.25
23.234,0.85,-0.66,-0.44,1.16
23.244,0.85,-0.79,-0.17,1.18
23.254,0.79,-1.03,0.02,1.30
23.264,0.61,-1.28,0.12,1.42
23.274,0.33,-1.44,0.22,1.49
23.284,-0.01,-1.58,0.16,1.59
23.294,-0.33,-1.61,0.04,1.65
23.304,-0.58,-1.54,-0.02,1.64
23.314,-0.72,-1.38,-0.11,1.56
23.324,-0.77,-1.19,-0.19,1.43
23.334,-0.74,-0.98,-0.21,1.24
23.344,-0.64,-0.72,-0.18,0.98
23.354,-0.51,-0.55,-0.23,0.79
23.364,-0.32,-0.54,-0.41,0.75
23.374,-0.03,-0.74,-0.69,1.01
23.384,0.31,-1.07,-0.91,1.44
23.394,0.67,-1.44,-1.07,1.91
23.404,0.98,-1.87,-1.23,2.44
23.414,1.22,-2.22,-1.45,2.92
23.424,1.32,-2.27,-1.83,3.20
23.434,1.21,-2.04,-2.19,3.23
23.444,1.02,-1.75,-2.33,3.09
23.454,0.88,-1.58,-2.40,3.01
23.464,0.83,-1.40,-2.36,2.87
23.474,0.83,-1.14,-2.22,2.63
23.484,0.77,-0.71,-2.04,2.30
23.494,0.56,-0.04,-1.76,1.85
23.504,0.18,1.05,-1.34,1.71
23.514,-0.40,2.64,-0.87,2.81
23.524,-1.18,4.66,-0.62,4.85
23.534,-2.25,6.96,0.00,7.31
23.544,-3.30,9.55,1.27,10.19
23.554,-3.42,11.69,2.07,12.35
23.565,-1.28,10.88,2.11,11.16
23.574,1.58,7.04,1.86,7.45
23.584,2.55,3.85,1.70,4.92
23.594,1.99,2.03,1.17,3.07
23.604,0.23,1.88,-0.08,1.89
23.614,-2.14,2.81,-1.40,3.80
23.624,-3.75,4.01,-2.31,5.96
23.634,-4.14,5.32,-2.85,7.32
23.644,-3.44,5.98,-2.35,7.29
23.654,-2.47,5.49,-1.14,6.12
23.663,-2.00,4.09,-0.18,4.56
23.674,-1.71,3.18,-0.11,3.61
23.684,-1.68,3.00,0.03,3.44
23.694,-1.61,2.90,-0.15,3.32
23.703,-1.20,2.31,-0.00,2.60
23.713,-0.53,1.16,0.58,1.40
23.724,-0.08,0.19,0.99,1.01
23.734,0.05,-0.76,0.96,1.23
23.744,0.14,-1.99,0.87,2.18
23.754,0.46,-3.31,1.02,3.49
23.763,0.94,-4.58,1.37,4.87
23.773,1.39,-5.73,1.52,6.09
23.784,1.75,-6.92,1.39,7.27
23.793,1.89,-8.11,1.08,8.39
23.803,1.65,-8.99,0.27,9.15
23.813,1.12,-9.63,-0.83,9.73
23.823,0.42,-9.76,-1.75,9.92
23.833,-0.11,-8.96,-2.36,9.27
23.843,-0.41,-7.11,-2.51,7.55
23.853,-0.50,-4.91,-2.42,5.50
23.863,-0.40,-2.83,-2.23,3.62
23.873,-0.30,-0.74,-1.75,1.92
23.883,-0.26,1.51,-1.10,1.88
23.893,0.01,3.93,-0.64,3.99
23.903,0.42,6.54,-0.46,6.57
23.913,0.97,8.69,0.07,8.75
23.923,1.05,8.03,1.93,8.33
23.933,0.49,4.01,3.55,5.38
23.943,0.05,0.88,4.19,4.28
23.953,-0.18,-0.77,4.22,4.30
23.963,-0.15,-1.61,3.34,3.71
23.973,-0.08,-1.86,1.96,2.71
23.983,-0.00,-1.80,0.67,1.93
23.993,0.10,-1.84,-0.30,1.87
24.003,0.16,-2.13,-0.70,2.24
24.013,0.21,-2.44,-0.72,2.55
24.023,0.34,-2.82,-0.89,2.98
24.033,0.60,-3.15,-1.07,3.38
24.043,0.89,-3.07,-1.12,3.39
24.053,1.07,-2.49,-0.86,2.84
24.063,1.22,-1.86,-0.63,2.31
24.073,1.29,-1.38,-0.43,1.94
24.083,1.33,-1.08,-0.07,1.71
24.093,1.43,-0.85,0.49,1.74
24.103,1.54,-0.54,0.93,1.88
24.113,1.53,-0.36,1.00,1.86
24.123,1.35,-0.61,0.79,1.68
24.133,1.23,-1.08,0.48,1.71
24.143,1.24,-1.54,0.14,1.99
24.153,1.26,-1.98,-0.20,2.35
24.163,1.31,-2.50,-0.57,2.88
24.173,1.35,-2.92,-0.96,3.35
24.183,1.33,-3.11,-1.34,3.64
24.193,1.25,-3.04,-1.65,3.68
24.203,1.18,-2.84,-1.90,3.61
24.213,1.19,-2.59,-2.07,3.53
24.223,1.28,-2.23,-2.18,3.38
24.233,1.44,-1.64,-2.21,3.11
24.243,1.65,-0.82,-2.12,2.81
24.253,2.04,0.37,-1.23,2.41
24.262,2.78,1.68,-0.06,3.25
24.273,3.56,3.04,1.22,4.84
24.283,3.21,6.06,2.07,7.16
24.293,1.32,9.25,0.38,9.35
24.302,-1.30,10.77,-1.14,10.91
24.314,-3.07,10.81,-0.83,11.27
24.323,-4.03,9.73,-0.23,10.53
24.333,-4.49,7.82,-0.11,9.01
24.343,-3.45,5.33,-0.76,6.39
24.353,-0.84,2.69,-0.03,2.82
24.363,1.18,1.80,1.06,2.40
24.373,1.97,1.47,0.86,2.61
24.383,2.24,1.24,-0.17,2.57
24.393,2.12,0.94,-1.26,2.65
24.402,1.48,0.26,-1.83,2.37
24.412,0.45,-0.37,-1.36,1.48
24.422,-0.15,-0.30,-0.32,0.46
24.432,-0.26,-0.15,0.82,0.88
24.442,-0.26,-0.54,1.77,1.87
24.452,-0.35,-1.02,2.24,2.49
24.462,-0.47,-1.44,2.04,2.54
24.473,-0.59,-1.93,1.59,2.57
24.482,-0.79,-2.53,1.39,2.99
24.492,-1.08,-3.17,1.37,3.62
24.502,-1.40,-3.77,1.30,4.23
24.512,-1.76,-4.23,1.18,4.74
24.522,-2.09,-4.46,1.08,5.04
24.532,-2.29,-4.48,1.01,5.13
24.542,-2.41,-4.36,0.92,5.06
24.552,-2.50,-4.01,0.84,4.80
24.562,-2.63,-3.38,0.82,4.36
24.572,-2.86,-2.49,0.96,3.91
24.582,-3.22,-1.43,0.96,3.65
24.592,-3.54,-0.25,0.69,3.62
24.602,-3.52,0.93,0.34,3.65
24.612,-2.74,2.01,0.27,3.41
24.622,-1.04,2.45,0.54,2.71
24.632,0.55,1.69,1.03,2.06
24.642,1.54,0.92,1.32,2.23
24.652,1.97,0.48,1.24,2.38
24.662,1.69,-0.09,1.07,2.00
24.672,1.11,-0.56,0.41,1.31
24.682,0.62,-0.87,-0.30,1.11
24.692,0.44,-1.19,-0.91,1.56
24.702,0.49,-1.39,-1.23,1.92
24.712,0.61,-1.59,-1.23,2.10
24.722,0.69,-1.68,-1.05,2.10
24.732,0.62,-1.80,-0.91,2.10
24.742,0.42,-1.88,-0.70,2.04
24.752,0.17,-1.80,-0.35,1.84
24.762,-0.12,-1.64,-0.03,1.64
24.772,-0.37,-1.35,0.29,1.43
24.782,-0.54,-0.95,0.62,1.25
24.792,-0.58,-0.59,0.81,1.15
24.802,-0.51,-0.32,0.85,1.05
24.812,-0.31,-0.12,0.79,0.85
24.822,-0.07,0.09,0.57,0.58
24.832,0.16,0.15,0.06,0.23
24.842,0.38,-0.04,-0.60,0.71
24.852,0.50,-0.43,-1.24,1.40
24.862,0.57,-0.84,-1.81,2.07
24.872,0.58,-1.02,-1.96,2.28
24.882,0.44,-0.97,-1.99,2.25
24.892,0.13,-0.92,-1.88,2.10
24.902,-0.13,-0.90,-1.83,2.04
24.912,-0.31,-0.95,-1.80,2.06
24.922,-0.42,-1.00,-1.69,2.01
24.932,-0.51,-1.02,-1.47,1.86
24.942,-0.66,-0.93,-1.19,1.65
24.952,-0.89,-0.74,-0.72,1.36
24.962,-1.12,-0.36,-0.30,1.21
24.972,-1.05,-0.07,-0.57,1.19
24.982,-1.16,-0.02,-0.08,1.17
24.992,-1.51,0.17,0.37,1.56
25.002,-2.07,0.58,0.32,2.18
25.012,-2.47,1.34,0.16,2.82
25.022,-2.25,2.08,0.20,3.07
25.032,-1.11,2.91,0.01,3.11
25.042,0.87,3.71,-0.59,3.85
25.052,2.84,3.71,-1.00,4.77
25.061,3.80,3.08,-0.75,4.95
25.071,3.03,2.10,0.19,3.69
25.081,0.85,1.88,0.11,2.06
25.092,-1.22,2.76,-0.22,3.02
25.101,-2.23,4.13,-0.75,4.75
25.112,-1.98,5.21,-1.62,5.80
25.121,-1.63,5.88,-1.48,6.28
25.131,-1.96,6.00,-0.68,6.35
25.141,-2.84,5.37,-0.14,6.08
25.151,-3.38,4.29,0.32,5.47
25.161,-3.33,3.37,0.71,4.79
25.171,-3.13,3.07,0.92,4.48
25.182,-2.82,2.99,1.12,4.26
25.191,-2.22,2.44,1.02,3.45
25.201,-1.51,1.63,0.69,2.33
25.211,-0.93,0.90,0.49,1.38
25.221,-0.53,0.18,0.35,0.66
25.231,-0.25,-0.48,0.25,0.60
25.241,0.07,-0.97,0.21,1.00
25.251,0.50,-1.27,0.15,1.37
25.261,1.07,-1.80,-0.22,2.11
25.271,1.58,-2.38,-0.57,2.92
25.281,1.95,-2.71,-0.74,3.41
25.291,2.29,-2.94,-0.96,3.85
25.301,2.72,-3.40,-1.09,4.49
25.311,3.03,-4.11,-0.93,5.19
25.321,3.04,-4.54,-0.71,5.51
25.331,2.83,-4.52,-0.61,5.37
25.341,2.56,-4.21,-0.44,4.95
25.351,1.96,-3.32,0.21,3.86
25.361,1.43,-2.42,0.49,2.85
25.371,1.29,-2.26,-0.45,2.64
25.381,0.78,-2.53,-0.84,2.78
25.391,0.64,-2.42,0.05,2.51
25.401,0.67,-1.45,0.49,1.67
25.411,0.06,0.33,0.68,0.75
25.421,-0.47,1.49,0.73,1.72
25.431,-0.69,1.46,0.51,1.70
25.441,-0.87,0.92,0.45,1.34
25.451,-1.11,0.54,0.53,1.35
25.461,-1.33,0.68,0.95,1.77
25.471,-1.14,0.81,1.22,1.86
25.481,-0.36,0.93,1.22,1.57
25.491,0.30,1.46,1.26,1.96
25.501,0.39,1.81,1.36,2.30
25.511,0.40,1.38,1.24,1.90
25.521,0.35,0.40,1.19,1.30
25.531,0.44,-0.63,1.38,1.58
25.541,0.75,-1.36,1.51,2.17
25.550,1.29,-1.86,1.20,2.56
25.561,1.10,-1.59,1.03,2.19
25.571,0.63,-1.12,0.74,1.49
25.581,0.18,-1.05,0.27,1.10
25.591,-0.33,-0.98,-0.01,1.04
25.601,-0.75,-0.55,-0.17,0.95
25.611,-0.70,-0.32,-0.44,0.88
25.621,-0.08,-1.74,-2.28,2.87
25.631,-0.10,-1.56,-1.00,1.86
25.641,-0.09,-0.96,-0.28,1.01
25.651,-0.50,-0.10,0.16,0.54
25.660,-1.43,1.10,1.23,2.18
25.671,-1.42,0.36,0.43,1.53
25.680,-0.38,-2.69,-0.67,2.80
25.691,1.14,-1.32,0.98,2.00
25.701,1.94,-0.21,1.60,2.52
25.710,1.04,-0.94,-0.56,1.51
25.720,2.30,-0.46,-2.07,3.13
25.731,1.42,-1.02,-1.14,2.08
25.740,0.60,-2.79,-1.49,3.22
25.751,0.49,-2.39,-0.98,2.63
25.760,0.26,-0.63,-0.30,0.74
25.770,0.25,-0.31,-0.29,0.50
25.780,0.65,0.04,0.16,0.67
25.790,1.10,-0.02,0.25,1.13
25.800,1.09,-0.12,0.40,1.16
25.810,0.78,-0.08,0.17,0.80
25.820,0.66,-0.11,0.04,0.67
25.830,0.54,-0.05,-0.06,0.55
25.840,0.51,0.23,-0.29,0.62
25.850,0.66,0.86,-0.29,1.13
25.860,0.68,1.62,-0.50,1.83
25.870,0.29,2.08,-0.53,2.17
25.880,0.01,1.24,-0.87,1.51
25.890,-0.30,-0.37,-0.73,0.87
25.900,-0.29,-1.76,-0.34,1.82
25.911,0.21,-2.50,-0.01,2.51
25.920,0.47,-2.30,0.15,2.36
25.930,1.34,-2.26,-0.50,2.68
25.940,0.86,-0.72,-0.92,1.46
25.950,0.88,-0.13,-1.29,1.57
25.960,1.28,0.18,-1.67,2.11
25.970,1.41,0.66,-1.36,2.07
25.980,1.92,0.57,-0.95,2.22
25.990,2.37,0.39,-0.53,2.46
26.000,2.85,0.37,-0.31,2.89
26.010,2.98,0.21,0.47,3.02
26.020,2.69,0.50,0.89,2.87
26.030,2.14,1.05,0.75,2.50
26.040,0.87,1.88,-0.15,2.08
26.050,-0.46,2.99,-1.21,3.26
26.060,-1.33,3.88,-1.74,4.45
26.070,-1.37,4.36,-1.87,4.94
26.080,-0.83,4.36,-1.50,4.69
26.090,-0.07,4.09,-0.86,4.19
26.100,0.98,4.09,-0.16,4.20
26.110,2.56,4.49,0.51,5.20
26.120,3.06,4.73,0.42,5.65
26.130,2.40,4.77,-0.68,5.39
26.140,1.15,4.70,-1.33,5.01
26.150,-0.27,4.90,-1.04,5.02
26.160,-1.20,5.59,0.28,5.73
26.170,-1.56,5.63,1.03,5.93
26.180,-1.23,4.49,-0.19,4.66
26.190,-1.14,4.46,0.81,4.68
26.200,-1.49,4.41,1.01,4.77
26.210,-1.58,4.16,1.39,4.67
26.220,-1.58,3.60,0.96,4.05
26.230,-1.54,2.95,0.34,3.34
26.239,-1.23,2.45,0.15,2.74
26.250,-0.78,1.86,-0.18,2.02
26.260,-0.42,0.90,0.05,1.00
26.270,-0.09,-0.10,0.64,0.65
26.280,0.35,-0.48,1.21,1.35
26.290,0.58,-0.65,2.15,2.32
26.300,0.55,-0.86,2.43,2.63
26.310,0.61,-1.53,2.86,3.30
26.319,0.53,-2.25,3.14,3.90
26.330,0.49,-2.20,2.68,3.50
26.339,0.39,-1.50,1.99,2.52
26.350,0.51,-0.59,1.50,1.69
26.359,0.63,-0.12,1.20,1.36
26.370,0.51,-0.10,1.23,1.34
26.379,-0.21,-0.43,1.80,1.86
26.389,-1.29,-1.13,3.11,3.56
26.399,-0.82,-2.20,2.71,3.59
26.409,-0.43,-2.30,1.26,2.66
26.419,0.07,-1.63,1.79,2.42
26.429,0.91,-0.90,2.03,2.40
26.439,1.75,-0.55,2.14,2.81
26.449,1.90,-0.21,2.46,3.11
26.459,2.10,-0.18,2.30,3.12
26.469,2.22,-0.32,2.77,3.56
26.479,1.99,-0.78,3.02,3.70
26.489,1.75,-1.14,3.21,3.83
26.499,1.79,-1.27,3.52,4.15
26.509,1.52,-1.17,3.79,4.25
26.519,1.20,-1.34,3.77,4.18
26.529,1.02,-1.39,4.12,4.46
26.539,0.60,-1.26,3.98,4.22
26.549,0.45,-1.19,3.91,4.11
26.559,0.69,-1.04,4.39,4.57
26.569,1.11,-0.61,4.84,5.01
26.579,1.47,0.20,5.21,5.42
26.589,1.16,0.42,4.17,4.35
26.599,0.82,-0.27,2.97,3.10
26.609,0.70,-0.79,3.35,3.51
26.619,0.89,-1.10,3.75,4.00
26.629,1.22,-0.75,4.54,4.76
26.639,1.70,0.20,5.54,5.80
26.649,2.07,1.28,5.62,6.13
26.659,1.98,1.87,4.25,5.05
26.669,1.77,1.61,2.42,3.41
26.679,1.77,0.33,1.34,2.24
26.689,2.50,-0.97,1.70,3.18
26.699,3.35,-1.44,2.40,4.36
26.709,4.05,-1.28,2.33,4.85
26.719,4.58,-0.44,1.94,4.99
26.729,4.77,0.67,1.38,5.01
26.739,4.92,1.36,0.55,5.13
26.749,5.05,1.64,-0.09,5.31
26.759,5.35,1.82,-0.46,5.67
26.769,5.71,2.01,-0.53,6.08
26.778,5.94,2.07,-0.62,6.32
26.789,6.01,1.80,-0.84,6.33
26.798,5.87,1.32,-1.12,6.12
26.809,5.57,0.68,-1.58,5.82
26.818,5.25,-0.03,-2.03,5.63
26.829,5.03,-0.74,-2.54,5.68
26.838,4.93,-1.09,-3.01,5.88
26.849,5.24,-1.01,-3.27,6.26
26.859,5.71,-0.27,-3.25,6.57
26.868,6.00,0.42,-3.48,6.95
26.878,6.09,0.78,-4.03,7.34
26.888,5.89,0.74,-4.48,7.44
26.898,5.48,0.45,-4.70,7.24
26.908,4.71,-0.03,-4.93,6.82
26.918,3.73,-0.53,-5.04,6.29
26.928,2.91,-1.14,-5.25,6.11
26.938,2.66,-1.55,-5.12,5.97
26.948,2.17,-1.41,-4.42,5.12
26.958,2.05,-1.24,-4.52,5.11
26.968,1.69,-0.75,-4.38,4.75
26.978,1.11,-0.34,-4.20,4.36
26.988,0.43,0.05,-4.61,4.63
26.998,-0.39,0.42,-4.95,4.99
27.008,-1.16,0.58,-4.92,5.09
27.018,-1.43,0.42,-4.62,4.86
27.028,-0.64,-0.01,-4.15,4.20
27.038,0.04,0.08,-2.74,2.74
27.048,0.28,0.47,-2.04,2.11
27.058,0.07,1.05,-2.42,2.64
27.068,-0.46,1.79,-3.22,3.71
27.078,-0.90,2.38,-4.22,4.92
27.088,-1.16,2.43,-4.45,5.20
27.098,3.16,6.36,-3.61,7.96
27.108,0.85,3.58,1.61,4.02
27.118,-1.04,-1.30,-1.57,2.29
27.128,0.46,-0.20,-0.50,0.71
27.138,0.12,-1.37,1.09,1.76
27.148,-1.27,-3.07,-0.42,3.35
27.158,-1.58,-2.42,0.67,2.97
27.168,-1.81,-1.68,0.63,2.55
27.178,-1.60,-0.49,-0.87,1.88
27.188,-1.23,0.67,-1.50,2.06
27.198,-0.50,1.90,-1.23,2.32
27.208,0.60,1.87,-1.48,2.46
27.218,1.50,1.22,-1.15,2.25
27.228,2.20,0.48,-0.12,2.25
27.238,2.53,-0.26,1.44,2.93
27.248,1.83,-1.14,1.28,2.51
27.258,1.14,-1.15,0.59,1.73
27.268,0.71,-0.54,0.11,0.90
27.278,0.29,0.19,-0.65,0.73
27.288,0.25,0.89,-1.28,1.58
27.298,0.47,1.64,-1.50,2.27
27.308,1.01,2.76,-2.07,3.60
27.318,0.92,3.24,-2.45,4.16
27.328,0.59,2.86,-2.02,3.55
27.338,0.29,1.93,-1.53,2.48
27.348,0.37,0.96,-0.97,1.41
27.358,0.52,-0.05,-0.52,0.74
27.368,0.71,-0.80,-0.07,1.07
27.378,0.97,-1.10,0.30,1.50
27.388,1.36,-1.12,0.20,1.77
27.398,1.66,-0.86,-0.07,1.87
27.408,1.79,-0.23,-0.32,1.84
27.418,1.62,0.46,-0.72,1.84
27.428,1.25,1.01,-1.17,1.99
27.438,0.89,1.20,-1.47,2.10
27.448,0.58,1.01,-1.44,1.85
27.458,0.40,0.65,-1.24,1.46
27.468,0.46,0.39,-1.00,1.16
27.478,0.69,0.39,-0.73,1.07
27.488,0.92,0.49,-0.55,1.18
27.497,1.00,0.62,-0.50,1.28
27.508,0.97,0.67,-0.42,1.26
27.517,0.80,0.53,-0.48,1.07
27.527,0.56,0.40,-0.60,0.91
27.537,0.39,0.46,-0.61,0.86
27.547,0.27,0.55,-0.66,0.91
27.557,0.11,0.92,-2.60,2.76
27.567,0.30,2.24,-3.30,4.00
27.577,0.90,2.02,-1.64,2.75
27.587,1.08,1.06,0.03,1.51
27.597,1.15,0.23,0.68,1.35
27.607,1.29,0.12,1.08,1.69
27.617,1.33,0.41,1.46,2.01
27.627,1.17,0.59,1.19,1.77
27.638,0.86,0.74,0.54,1.26
27.647,0.46,0.83,-0.51,1.08
27.658,0.05,0.82,-1.55,1.76
27.667,0.15,0.80,-1.79,1.97
27.677,0.70,0.84,-1.54,1.89
