time,ax,ay,az,atotal
0.000,0.56,2.09,-0.22,2.17
0.010,0.52,2.53,-0.59,2.64
0.020,0.66,2.61,-0.39,2.72
0.030,0.23,1.96,0.32,2.00
0.040,-0.24,0.41,1.09,1.19
0.050,-0.35,0.55,0.87,1.09
0.060,-0.74,1.83,1.38,2.41
0.070,-0.84,3.07,0.55,3.23
0.080,-1.24,4.25,-0.21,4.43
0.090,-1.37,5.29,-0.81,5.53
0.100,-1.58,5.70,-1.21,6.04
0.110,-1.87,5.65,-1.35,6.10
0.120,-2.11,5.37,-1.23,5.90
0.130,-2.32,4.84,-1.43,5.56
0.140,-2.73,4.36,-1.27,5.30
0.150,-3.27,3.96,-1.10,5.25
0.160,-3.67,3.66,-1.43,5.38
0.170,-3.77,3.45,-2.07,5.52
0.180,-3.82,3.29,-2.43,5.60
0.190,-3.91,3.60,-2.07,5.70
0.200,-3.82,4.10,-1.89,5.91
0.210,-3.51,4.53,-2.20,6.14
0.220,-2.88,4.88,-2.99,6.41
0.230,-2.11,5.32,-3.66,6.79
0.240,-1.21,5.56,-3.70,6.79
0.250,-0.31,5.60,-3.22,6.47
0.260,0.25,5.66,-2.74,6.29
0.270,0.69,5.60,-2.61,6.21
0.280,0.79,5.14,-2.91,5.96
0.290,0.49,4.31,-3.39,5.51
0.300,0.21,3.31,-3.74,5.00
0.310,0.32,2.64,-3.91,4.73
0.320,0.70,2.63,-4.73,5.46
0.330,0.99,3.22,-5.34,6.32
0.340,1.56,4.11,-5.37,6.93
0.350,2.52,4.58,-5.67,7.71
0.360,3.62,4.26,-6.45,8.54
0.369,4.36,3.53,-6.71,8.75
0.380,4.92,2.71,-6.45,8.55
0.389,5.40,1.65,-6.50,8.61
0.400,5.56,0.85,-6.44,8.55
0.409,5.78,0.53,-6.77,8.92
0.419,5.91,0.15,-7.39,9.46
0.429,5.98,0.03,-7.83,9.85
0.439,5.95,0.35,-7.64,9.69
0.449,6.21,0.71,-7.34,9.64
0.460,6.56,0.95,-7.60,10.08
0.469,6.95,1.19,-7.57,10.34
0.479,6.93,1.08,-7.14,10.01
0.489,6.70,0.71,-7.31,9.94
0.499,6.29,0.08,-7.44,9.74
0.509,5.85,-0.62,-6.89,9.06
0.519,5.59,-0.85,-5.28,7.73
0.529,5.50,-1.04,-4.61,7.25
0.539,5.07,-1.14,-3.57,6.30
0.549,4.51,-0.58,-2.03,4.98
0.559,4.06,0.92,-1.25,4.35
0.569,4.93,1.75,-0.85,5.30
0.579,5.68,0.92,-1.14,5.87
0.589,5.55,-0.60,-1.65,5.82
0.599,5.29,-1.61,2.71,6.16
0.609,6.10,-4.37,1.49,7.65
0.620,4.16,-5.63,6.93,9.85
0.629,3.33,-6.40,8.87,11.43
0.639,2.97,-6.72,3.09,7.97
0.649,2.77,-3.80,2.42,5.28
0.659,3.32,-0.56,1.79,3.81
0.669,3.55,1.56,0.68,3.93
0.679,3.21,2.13,0.51,3.89
0.689,2.40,0.88,0.74,2.66
0.699,1.19,-1.01,1.52,2.18
0.709,0.31,-2.97,1.48,3.33
0.719,-0.23,-4.94,1.06,5.06
0.729,-1.10,-5.80,3.79,7.02
0.739,-0.89,-5.37,6.67,8.61
0.749,0.16,-4.53,5.19,6.89
0.759,1.01,-3.89,1.95,4.46
0.769,1.75,-2.53,0.89,3.20
0.779,2.91,-1.33,-0.79,3.29
0.789,3.53,-0.61,-1.69,3.96
0.799,3.01,-0.66,-2.16,3.76
0.809,1.55,-1.21,-1.33,2.37
0.819,0.34,-1.49,-0.51,1.61
0.829,-0.36,-1.13,0.35,1.24
0.839,-0.78,0.14,2.17,2.31
0.849,-0.26,1.30,1.55,2.04
0.859,0.33,1.79,0.70,1.94
0.869,0.90,1.93,1.57,2.65
0.879,1.17,1.53,2.37,3.05
0.889,1.32,0.14,2.60,2.92
0.899,1.42,-0.93,2.67,3.16
0.909,1.40,-1.23,2.67,3.26
0.919,1.34,-1.39,2.27,2.98
0.928,1.24,-1.87,1.40,2.64
0.939,0.95,-2.28,1.14,2.72
0.949,0.88,-2.53,1.09,2.90
0.959,1.01,-2.50,0.73,2.80
0.969,1.10,-2.01,0.42,2.33
0.979,1.03,-1.77,0.07,2.05
0.989,1.16,-2.11,-0.58,2.47
0.999,1.34,-2.49,-0.84,2.95
1.009,1.49,-2.89,-0.71,3.33
1.019,1.29,-3.61,-0.67,3.89
1.029,0.97,-3.62,0.18,3.75
1.038,1.18,-2.12,1.87,3.06
1.048,1.88,-0.78,1.05,2.29
1.059,2.06,-0.53,0.29,2.14
1.069,1.87,-0.24,0.67,2.00
1.079,2.12,0.68,-0.03,2.23
1.088,2.12,1.39,-0.88,2.69
1.099,1.92,1.67,-0.54,2.60
1.109,1.84,1.81,-0.13,2.58
1.118,1.61,1.98,-0.19,2.56
1.128,1.09,1.98,0.58,2.34
1.138,0.56,2.01,1.11,2.36
1.148,-0.18,2.25,1.20,2.55
1.158,-0.97,2.40,1.20,2.85
1.168,-1.54,2.18,0.67,2.75
1.178,-2.19,1.35,0.28,2.59
1.188,-2.41,0.12,0.06,2.41
1.198,-2.04,-0.97,0.39,2.29
1.208,-1.28,-1.57,1.37,2.44
1.218,-0.64,-1.96,2.00,2.87
1.228,0.19,-2.46,1.38,2.82
1.238,0.65,-2.23,0.67,2.42
1.248,0.21,-1.03,0.20,1.07
1.258,-0.76,-0.12,-1.16,1.39
1.268,-1.60,0.03,-3.91,4.22
1.278,-1.93,-0.11,-6.62,6.90
1.288,-2.68,1.65,-3.17,4.46
1.298,-2.49,5.47,1.39,6.17
1.308,-0.07,5.61,-1.14,5.72
1.318,1.68,3.02,-1.98,3.98
1.328,1.54,0.69,0.49,1.76
1.338,1.15,-1.27,1.10,2.03
1.348,1.27,-2.40,0.50,2.76
1.358,1.64,-2.20,0.56,2.79
1.368,1.31,-1.03,3.05,3.48
1.378,1.96,0.01,2.52,3.19
1.388,2.67,-0.05,0.25,2.68
1.398,2.40,-0.51,-0.13,2.46
1.408,2.61,-0.90,0.43,2.79
1.418,3.39,-0.89,0.61,3.56
1.428,3.58,-1.22,-0.12,3.78
1.438,3.41,-2.06,-0.61,4.03
1.448,2.51,-1.44,0.39,2.92
1.458,1.52,1.11,0.51,1.95
1.468,1.19,2.63,-1.12,3.10
1.478,0.59,2.50,-2.44,3.55
1.488,-0.15,2.00,-2.03,2.85
1.498,-0.81,1.14,-0.77,1.60
1.508,-0.66,0.15,0.69,0.96
1.518,-0.14,0.12,3.48,3.49
1.528,0.04,0.20,4.31,4.31
1.538,0.71,0.04,3.85,3.92
1.548,0.67,-0.04,3.21,3.28
1.558,-0.33,-0.05,2.00,2.03
1.568,-1.95,-0.43,-0.12,2.00
1.578,-3.84,-0.91,-2.15,4.49
1.588,-4.93,-0.93,-3.63,6.19
1.598,-4.77,-0.86,-4.65,6.72
1.608,-3.10,-1.43,-3.91,5.19
1.618,-0.95,-2.01,-2.06,3.03
1.628,0.47,-1.70,-0.54,1.84
1.637,0.75,-1.27,-0.45,1.54
1.648,-0.04,-0.68,-1.14,1.33
1.657,-1.28,0.66,-1.51,2.09
1.668,-2.30,1.18,-1.88,3.20
1.678,-1.87,1.13,-2.64,3.42
1.687,-0.93,-0.01,-2.70,2.86
1.697,-0.03,-0.80,-1.18,1.42
1.707,1.05,-0.92,0.09,1.40
1.717,1.93,-0.51,1.48,2.49
1.728,2.38,-0.20,4.45,5.05
1.737,2.26,0.47,5.51,5.97
1.747,2.22,1.98,3.94,4.94
1.757,1.63,4.10,3.58,5.68
1.767,1.81,4.39,2.86,5.54
1.778,1.98,3.25,2.44,4.52
1.787,1.09,1.43,2.23,2.87
1.797,-0.04,0.28,1.65,1.67
1.807,-0.73,-0.23,0.70,1.03
1.817,-0.62,0.36,1.07,1.28
1.827,-0.02,1.52,0.62,1.64
1.837,-0.03,2.55,1.03,2.75
1.847,0.44,3.45,-0.02,3.48
1.857,-0.11,1.28,-2.35,2.68
1.867,-1.16,-1.94,-2.90,3.67
1.877,-1.23,-4.03,-2.78,5.05
1.887,-0.72,-5.59,-2.72,6.25
1.897,0.20,-5.97,-1.72,6.22
1.907,0.84,-5.10,-0.16,5.17
1.917,0.32,-2.29,-0.53,2.37
1.927,0.03,0.07,-2.73,2.73
1.937,-0.14,0.72,-2.00,2.13
1.947,0.02,0.28,-1.28,1.30
1.957,0.03,-0.86,-2.01,2.19
1.967,0.05,-1.15,-1.04,1.55
1.977,0.46,-0.89,-0.00,1.00
1.987,1.52,-0.83,0.71,1.87
1.997,2.47,-1.10,1.48,3.08
2.007,1.99,-0.32,3.19,3.78
2.017,0.76,0.49,4.29,4.38
2.027,-0.31,1.36,2.69,3.03
2.037,-1.72,2.41,1.80,3.46
2.047,-2.52,2.82,0.80,3.86
2.057,-2.36,1.98,-0.43,3.11
2.067,-2.03,0.42,-0.75,2.20
2.077,-1.63,-0.49,-0.88,1.92
2.087,0.02,-0.99,0.12,0.99
2.097,0.86,-1.33,0.61,1.69
2.107,1.18,-1.36,0.28,1.82
2.117,0.71,-1.16,-0.08,1.36
2.127,-0.27,-1.13,-0.51,1.27
2.137,-1.51,-1.99,-1.41,2.87
2.147,-3.17,-2.35,0.18,3.95
2.157,-3.86,-2.22,0.52,4.48
2.167,-3.49,-1.85,-1.89,4.38
2.177,-2.30,0.37,-2.41,3.35
2.187,-0.27,3.56,-1.90,4.04
2.197,2.03,3.17,-2.02,4.27
2.207,3.51,0.95,-1.99,4.15
2.217,3.11,-2.43,-1.03,4.08
2.227,1.86,-7.08,-0.11,7.32
2.237,0.34,-9.74,1.26,9.82
2.247,-3.97,-7.10,7.63,11.15
2.257,-4.69,-2.50,8.67,10.17
2.267,-3.73,1.02,4.02,5.58
2.277,-3.57,2.25,1.53,4.49
2.287,-2.70,4.13,-2.92,5.74
2.297,-1.58,7.10,-4.76,8.70
2.307,0.31,8.35,-4.01,9.27
2.316,3.57,7.05,-3.19,8.52
2.327,6.94,4.54,-1.92,8.51
2.337,8.31,2.54,-0.84,8.73
2.347,6.20,-0.10,0.42,6.21
2.357,4.37,-3.39,1.08,5.63
2.367,3.54,-4.07,1.28,5.54
2.377,2.46,-3.17,0.72,4.08
2.386,0.81,-2.21,-0.26,2.37
2.397,-0.90,-0.45,-0.85,1.31
2.406,-2.12,1.10,-0.32,2.41
2.416,-2.36,1.46,0.15,2.77
2.426,-2.46,1.42,0.38,2.87
2.436,-2.76,1.53,0.82,3.26
2.446,-2.43,1.66,0.98,3.10
2.456,-1.68,1.84,0.75,2.60
2.466,-0.65,1.88,0.97,2.21
2.477,-0.23,1.82,0.57,1.92
2.486,-0.12,1.82,-0.59,1.92
2.496,-0.06,1.60,-2.16,2.69
2.506,-0.22,1.40,-2.19,2.61
2.516,-0.57,1.11,-1.92,2.28
2.526,0.05,0.14,-1.08,1.09
2.536,0.77,-0.87,-0.19,1.18
2.546,0.91,-1.27,0.21,1.58
2.556,0.96,-1.03,0.24,1.43
2.566,1.23,-0.32,0.05,1.28
2.576,1.74,0.44,-0.30,1.82
2.586,2.25,1.47,-0.79,2.80
2.596,2.28,2.11,-1.78,3.58
2.606,1.79,2.07,-2.06,3.42
2.616,0.91,1.40,-1.64,2.34
2.626,0.30,0.99,-2.06,2.31
2.636,0.42,-1.37,-0.51,1.52
2.646,0.23,-3.96,3.40,5.22
2.656,-0.14,-5.37,5.65,7.80
2.666,0.59,-4.45,2.77,5.27
2.676,1.68,-0.66,-5.90,6.17
2.686,1.41,0.17,-5.90,6.07
2.696,0.42,0.43,-3.57,3.62
2.706,0.26,1.12,-1.33,1.76
2.716,0.69,2.07,-0.14,2.18
2.726,1.17,2.91,0.03,3.13
2.736,1.46,3.44,-0.23,3.74
2.746,1.37,3.39,-0.50,3.69
2.756,0.99,2.71,-0.74,2.98
2.766,0.63,1.32,-0.84,1.68
2.776,0.86,-0.28,-0.72,1.16
2.786,1.28,-0.94,-0.71,1.74
2.796,1.39,-0.94,-0.88,1.89
2.806,1.24,-0.73,-1.12,1.83
2.816,1.03,-0.53,-1.35,1.78
2.826,0.94,-0.40,-1.49,1.81
2.836,0.10,-3.01,-4.44,5.37
2.846,0.41,-15.50,-7.32,17.14
2.856,-1.39,-4.92,3.20,6.03
2.866,0.59,-2.37,2.07,3.20
2.876,2.34,-0.24,-0.00,2.35
2.886,2.00,2.56,-1.02,3.40
2.896,1.80,2.83,-1.57,3.71
2.906,1.97,2.85,-2.07,4.04
2.915,2.23,3.59,-1.84,4.61
2.926,2.27,3.56,-1.01,4.34
2.936,2.00,2.60,0.12,3.28
2.946,1.09,1.44,0.18,1.82
2.956,0.41,0.57,-0.73,1.01
2.966,0.39,0.01,-1.29,1.34
2.976,0.22,0.50,-1.70,1.79
2.985,0.03,0.98,-1.84,2.08
2.996,0.40,0.16,-1.24,1.31
3.005,0.38,-0.17,-0.85,0.95
3.016,0.19,0.46,-1.12,1.22
3.025,0.36,0.86,-1.08,1.43
3.036,0.68,0.96,-0.94,1.50
3.045,0.61,1.57,-0.91,1.91
3.055,0.29,2.62,-1.06,2.84
3.065,0.23,3.29,-1.03,3.46
3.076,0.13,3.72,-0.85,3.81
3.085,0.04,3.43,-0.73,3.51
3.095,0.09,1.39,-0.78,1.59
3.105,0.47,-2.89,-0.87,3.06
3.115,1.16,-5.83,-0.85,6.00
3.126,1.73,-3.63,-0.58,4.07
3.136,2.13,0.79,-0.29,2.29
3.145,1.63,5.84,0.50,6.08
3.155,-0.34,10.89,2.11,11.10
3.165,-1.84,9.20,1.01,9.44
3.175,-1.65,3.11,0.19,3.52
3.185,-2.54,5.10,-0.23,5.70
3.195,-3.57,10.07,-0.11,10.68
3.205,-3.37,10.37,0.54,10.92
3.215,-2.53,8.95,1.18,9.38
3.225,-1.16,6.47,1.61,6.76
3.235,-0.18,3.60,1.60,3.94
3.245,0.20,1.36,1.41,1.96
3.255,0.34,-0.51,1.09,1.25
3.265,0.35,-1.80,0.55,1.92
3.275,0.25,-2.74,-0.08,2.75
3.285,0.29,-3.51,-0.92,3.64
3.295,0.25,-4.13,-1.43,4.38
3.305,0.16,-4.71,-1.51,4.94
3.315,0.27,-5.26,-1.17,5.39
3.325,-0.02,-5.18,-0.39,5.20
3.335,-0.48,-4.59,0.90,4.70
3.345,-1.04,-3.94,2.16,4.61
3.355,-1.10,-4.36,3.82,5.90
3.365,-1.11,-3.96,5.82,7.12
3.375,-1.51,-2.67,4.49,5.44
3.385,-2.25,-2.76,0.68,3.62
3.395,-2.95,-2.72,-1.16,4.18
3.405,-3.43,-2.01,-1.20,4.15
3.415,-3.12,-0.53,-0.67,3.24
3.425,-1.49,0.36,-0.48,1.60
3.435,-0.08,0.21,-0.55,0.59
3.445,0.39,0.25,-0.72,0.86
3.455,0.32,0.14,-0.72,0.80
3.465,0.30,-0.15,-0.65,0.73
3.475,0.55,-0.32,-0.68,0.93
3.485,0.89,-0.24,-0.65,1.13
3.495,1.21,-0.11,-0.54,1.33
3.505,1.47,-0.16,-0.54,1.57
3.515,1.68,-0.42,-0.73,1.88
3.525,1.75,-0.85,-0.92,2.15
3.535,1.70,-1.29,-1.08,2.39
3.545,1.52,-1.83,-1.19,2.66
3.555,1.31,-2.21,-1.24,2.86
3.565,0.99,-2.57,-1.18,3.00
3.575,0.63,-2.98,-1.10,3.24
3.585,0.30,-3.33,-1.17,3.54
3.595,0.10,-3.48,-1.43,3.76
3.604,0.02,-3.48,-1.69,3.87
3.615,0.14,-3.41,-1.98,3.94
3.625,0.43,-3.22,-2.20,3.93
3.635,0.74,-2.63,-2.18,3.49
3.645,0.88,-1.73,-1.97,2.77
3.654,0.71,-1.09,-1.52,2.00
3.665,0.39,-0.48,-1.24,1.38
3.674,0.08,0.16,-1.39,1.40
3.684,-0.21,0.95,-1.72,1.97
3.695,-0.39,1.82,-1.97,2.71
3.704,-0.31,2.65,-1.88,3.27
3.714,0.10,3.28,-1.41,3.57
3.725,0.62,3.64,-0.83,3.78
3.735,0.85,3.70,-0.38,3.82
3.744,0.53,3.68,-0.09,3.72
3.755,-0.48,3.67,0.15,3.70
3.764,-1.97,3.87,0.52,4.37
3.774,-3.33,4.30,1.58,5.66
3.784,-3.60,4.49,2.63,6.33
3.794,-1.96,4.58,2.49,5.57
3.804,0.44,4.92,1.91,5.30
3.814,1.97,4.62,1.21,5.17
3.824,2.32,3.22,0.57,4.01
3.834,1.45,1.46,0.08,2.06
3.844,-0.14,0.33,-0.47,0.59
3.854,-1.34,-0.09,-1.28,1.86
3.864,-1.94,-0.17,-2.13,2.88
3.874,-2.08,0.20,-2.43,3.20
3.884,-1.75,1.02,-1.99,2.84
3.894,-1.14,1.78,-1.13,2.39
3.904,-0.60,1.91,-0.53,2.07
3.914,-0.36,1.81,-0.18,1.86
3.924,-0.47,1.86,0.12,1.93
3.934,-0.80,2.06,0.42,2.25
3.944,-1.18,1.96,0.79,2.43
3.954,-1.41,1.52,1.19,2.39
3.964,-1.43,1.10,1.37,2.26
3.974,-1.33,0.50,1.32,1.94
3.984,-1.11,-0.32,1.30,1.74
3.994,-0.63,-1.17,1.36,1.91
4.004,0.05,-2.09,1.57,2.62
4.014,0.69,-3.11,1.50,3.52
4.024,1.21,-3.97,1.00,4.27
4.034,1.57,-4.62,0.27,4.89
4.044,1.73,-5.00,-0.34,5.30
4.054,1.82,-5.05,-0.82,5.43
4.064,1.88,-4.77,-1.34,5.30
4.074,1.79,-4.30,-1.75,4.97
4.084,1.59,-3.78,-1.96,4.55
4.094,1.37,-3.24,-2.04,4.07
4.104,1.17,-2.57,-2.04,3.48
4.114,1.13,-1.61,-1.77,2.64
4.124,1.31,-0.32,-1.27,1.86
4.134,1.61,1.07,-0.68,2.05
4.144,1.83,2.50,0.10,3.10
4.154,1.95,3.47,0.91,4.09
4.164,1.73,4.10,1.28,4.63
4.174,1.34,4.33,1.03,4.65
4.184,1.05,4.38,0.58,4.54
4.194,1.13,4.42,0.32,4.57
4.204,1.24,4.45,0.47,4.64
4.214,1.10,4.28,0.76,4.48
4.224,0.96,3.55,0.90,3.78
4.234,0.84,2.37,1.07,2.73
4.244,0.65,1.33,1.30,1.97
4.254,0.52,0.70,1.40,1.65
4.264,0.51,0.22,1.33,1.44
4.274,0.46,-0.46,1.08,1.27
4.283,0.38,-1.27,0.60,1.45
4.294,0.36,-2.09,-0.05,2.12
4.304,0.44,-2.77,-0.63,2.87
4.314,0.65,-3.05,-0.92,3.25
4.324,0.94,-2.97,-0.90,3.25
4.334,1.29,-2.77,-0.68,3.13
4.344,1.61,-2.54,-0.42,3.03
4.354,1.80,-2.38,-0.17,2.99
4.363,1.89,-2.18,0.12,2.89
4.374,1.87,-1.89,0.40,2.69
4.384,1.75,-1.58,0.58,2.43
4.394,1.50,-1.39,0.66,2.15
4.403,1.27,-1.48,0.63,2.05
4.413,1.01,-1.45,0.40,1.81
4.424,0.84,-1.64,-0.19,1.85
4.433,0.86,-1.95,-0.82,2.28
4.443,0.92,-2.31,-1.42,2.86
4.453,1.00,-2.61,-1.98,3.42
4.463,1.12,-2.76,-2.47,3.87
4.473,1.24,-2.64,-2.86,4.08
4.483,1.30,-2.25,-3.21,4.13
4.493,1.26,-1.61,-3.48,4.04
4.503,1.19,-0.68,-3.46,3.72
4.513,1.33,0.60,-2.65,3.03
4.523,2.21,2.02,-1.24,3.24
4.533,3.00,3.59,0.42,4.69
4.543,2.01,5.68,1.51,6.21
4.553,0.29,7.10,1.47,7.26
4.563,-2.18,7.33,1.86,7.87
4.573,-4.40,7.30,1.98,8.75
4.583,-5.37,7.00,1.39,8.93
4.593,-5.59,5.95,0.81,8.20
4.603,-4.28,4.33,0.29,6.09
4.613,-1.24,2.00,0.49,2.41
4.623,0.45,1.41,0.87,1.72
4.633,0.99,1.46,0.91,1.99
4.643,1.43,1.26,0.18,1.92
4.653,1.66,0.48,-1.07,2.03
4.663,1.50,-0.90,-1.79,2.51
4.673,0.69,-1.79,-1.20,2.27
4.683,-0.35,-1.25,-0.25,1.32
4.693,-0.68,-1.41,0.26,1.59
4.703,-0.49,-1.73,0.79,1.97
4.713,-0.23,-1.81,1.26,2.22
4.723,-0.24,-1.78,1.63,2.42
4.733,-0.57,-1.87,1.84,2.69
4.743,-1.16,-2.08,1.86,3.02
4.753,-1.78,-2.22,1.70,3.32
4.763,-2.15,-2.21,1.32,3.36
4.773,-2.16,-2.20,0.71,3.16
4.783,-1.65,-2.60,0.11,3.08
4.793,-0.98,-2.77,-0.30,2.96
4.803,-0.54,-2.11,-0.43,2.21
4.813,-0.21,-1.32,-0.34,1.38
4.823,0.04,-0.71,-0.27,0.76
4.833,0.38,-0.15,-0.40,0.57
4.843,0.80,0.42,-0.46,1.01
4.853,1.17,1.12,-0.20,1.63
4.863,1.40,1.76,0.28,2.26
4.873,1.49,1.96,0.64,2.55
4.883,1.42,1.72,0.80,2.37
4.893,1.26,1.16,0.77,1.88
4.903,1.04,0.46,0.45,1.22
4.913,0.65,-0.04,0.08,0.66
4.923,0.12,-0.41,-0.09,0.43
4.933,-0.48,-0.74,-0.07,0.89
4.943,-1.04,-0.98,-0.00,1.43
4.953,-1.51,-1.08,0.09,1.86
4.963,-1.81,-0.97,0.15,2.06
4.973,-1.92,-0.74,0.26,2.07
4.982,-1.83,-0.43,0.45,1.94
4.993,-1.62,-0.18,0.79,1.82
5.002,-1.29,-0.14,1.17,1.75
5.013,-0.90,-0.34,1.36,1.67
5.022,-0.45,-0.70,1.22,1.48
5.032,0.00,-1.05,0.88,1.37
5.043,0.39,-1.26,0.51,1.41
5.052,0.62,-1.36,0.16,1.51
5.062,0.72,-1.39,-0.21,1.58
5.072,0.70,-1.27,-0.57,1.56
5.082,0.69,-1.19,-0.83,1.61
5.092,0.73,-1.22,-0.96,1.72
5.102,0.77,-1.18,-0.98,1.72
5.112,0.84,-1.08,-0.92,1.65
5.122,0.92,-1.08,-0.76,1.61
5.132,0.94,-1.06,-0.59,1.53
5.142,0.92,-1.10,-0.46,1.51
5.152,0.88,-1.10,-0.39,1.46
5.162,0.82,-1.07,-0.37,1.40
5.172,0.78,-0.93,-0.37,1.26
5.182,0.69,-0.70,-0.35,1.04
5.192,0.51,-0.40,-0.29,0.71
5.202,0.27,-0.08,-0.19,0.34
5.212,0.04,0.17,-0.09,0.20
5.222,-0.17,0.30,-0.15,0.37
5.232,-0.35,0.37,-0.26,0.58
5.242,-0.49,0.33,-0.37,0.69
5.252,-0.52,0.23,-0.45,0.73
5.262,-0.48,0.18,-0.48,0.70
5.272,-0.43,0.15,-0.43,0.63
5.282,-0.34,0.09,-0.49,0.60
5.292,-0.27,0.07,-0.64,0.70
5.302,-0.20,0.02,-0.81,0.84
5.312,-0.09,-0.06,-0.91,0.92
5.322,-0.01,-0.14,-1.00,1.01
5.332,0.07,-0.23,-1.03,1.06
5.342,0.18,-0.39,-1.03,1.12
5.352,0.26,-0.68,-0.98,1.22
5.362,0.28,-1.00,-0.86,1.34
5.372,0.21,-1.19,-0.76,1.42
5.382,0.10,-1.15,-0.71,1.36
5.392,0.03,-1.04,-0.78,1.30
5.402,0.01,-0.93,-0.92,1.30
5.412,0.11,-0.88,-1.16,1.46
5.422,0.34,-0.91,-1.46,1.75
5.432,0.64,-0.93,-1.65,2.00
5.442,0.94,-0.92,-1.71,2.16
5.452,1.17,-0.90,-1.69,2.24
5.462,1.31,-0.81,-1.69,2.28
5.472,1.28,-0.58,-1.70,2.20
5.482,1.04,-0.12,-1.72,2.01
5.492,0.62,0.57,-1.74,1.93
5.502,-0.00,1.42,-1.73,2.24
5.512,-0.80,2.35,-1.50,2.90
5.522,-1.79,3.28,-0.92,3.85
5.532,-2.86,4.22,-0.08,5.10
5.542,-3.69,5.31,0.97,6.54
5.552,-3.91,6.48,1.82,7.79
5.562,-2.88,7.07,2.06,7.91
5.572,-0.76,6.14,1.83,6.45
5.582,0.72,4.57,1.29,4.80
5.592,0.98,2.83,0.52,3.04
5.602,0.24,1.37,-0.35,1.44
5.612,-1.13,0.83,-1.04,1.75
5.621,-2.35,1.04,-1.65,3.05
5.632,-2.89,1.38,-2.05,3.80
5.642,-2.86,1.73,-1.88,3.83
5.652,-2.60,2.05,-1.36,3.58
5.662,-2.31,2.34,-1.26,3.52
5.672,-2.17,2.34,-1.00,3.35
5.682,-2.24,2.46,-0.69,3.40
5.691,-2.35,2.78,-0.39,3.66
5.701,-2.18,3.23,0.15,3.90
5.711,-1.70,3.31,0.68,3.78
5.721,-1.04,2.88,0.90,3.20
5.731,-0.45,2.36,0.91,2.57
5.741,0.04,1.64,0.84,1.85
5.751,0.53,0.75,0.79,1.21
5.761,1.14,-0.23,0.85,1.44
5.771,1.72,-1.30,1.01,2.38
5.781,2.29,-2.28,1.08,3.41
5.792,2.80,-3.17,1.04,4.36
5.801,3.10,-3.99,0.82,5.12
5.811,3.15,-4.64,0.30,5.62
5.821,2.94,-4.98,-0.40,5.79
5.831,2.58,-4.85,-1.19,5.62
5.841,2.35,-4.40,-1.87,5.33
5.851,2.24,-3.90,-2.11,4.97
5.861,2.06,-3.36,-1.92,4.38
5.871,1.80,-2.69,-1.66,3.64
5.881,1.47,-1.86,-1.32,2.72
5.891,1.13,-1.06,-0.85,1.77
5.901,0.76,-0.21,-0.32,0.85
5.911,0.39,0.80,0.25,0.93
5.921,0.07,1.65,0.81,1.84
5.931,-0.08,2.20,1.54,2.68
5.941,0.04,2.37,1.91,3.04
5.951,0.31,2.09,1.63,2.67
5.961,0.62,1.63,1.12,2.08
5.971,1.14,1.20,0.81,1.84
5.981,1.64,0.90,0.47,1.93
5.991,1.86,0.79,0.21,2.03
6.001,1.75,0.75,0.17,1.91
6.011,1.49,0.68,0.19,1.65
6.021,1.22,0.42,0.18,1.30
6.031,0.92,-0.07,0.30,0.97
6.041,0.61,-0.47,0.61,0.99
6.051,0.40,-0.68,0.85,1.16
6.061,0.26,-1.04,0.98,1.45
6.071,0.19,-1.74,0.97,2.00
6.081,0.14,-2.23,0.80,2.38
6.091,0.12,-2.49,0.43,2.53
6.101,0.15,-2.53,-0.04,2.53
6.111,0.27,-2.38,-0.35,2.42
6.121,0.48,-2.09,-0.56,2.22
6.131,0.64,-1.84,-0.63,2.05
6.141,0.75,-1.61,-0.64,1.89
6.151,0.85,-1.27,-0.55,1.62
6.161,1.08,-0.79,-0.41,1.40
6.171,1.39,-0.26,-0.23,1.43
6.181,1.56,0.29,0.03,1.58
6.191,1.43,0.84,0.22,1.67
6.201,1.13,1.12,0.29,1.62
6.211,0.77,1.08,0.36,1.37
6.221,0.47,0.73,0.33,0.93
6.231,0.31,0.19,0.22,0.42
6.241,0.33,-0.39,-0.00,0.51
6.251,0.48,-0.98,-0.22,1.11
6.261,0.72,-1.55,-0.44,1.76
6.271,0.99,-2.02,-0.66,2.34
6.280,1.19,-2.34,-0.91,2.78
6.291,1.35,-2.44,-1.13,3.00
6.300,1.50,-2.38,-1.36,3.12
6.310,1.60,-2.20,-1.57,3.14
6.321,1.68,-1.94,-1.73,3.09
6.331,1.71,-1.54,-1.81,2.93
6.340,1.73,-1.00,-1.93,2.78
6.351,1.76,-0.38,-2.03,2.71
6.361,1.80,0.33,-2.03,2.73
6.370,1.80,1.18,-1.59,2.67
6.380,1.90,2.36,-0.56,3.08
6.390,2.35,3.46,0.36,4.20
6.400,2.42,4.45,1.00,5.17
6.410,1.25,5.94,0.73,6.12
6.420,-0.85,7.30,-0.31,7.36
6.431,-2.93,7.73,-1.37,8.38
6.440,-3.85,7.42,-1.86,8.56
6.450,-4.12,6.46,-1.41,7.79
6.460,-3.98,5.80,-1.16,7.13
6.470,-2.73,5.08,-1.29,5.91
6.480,-0.22,3.70,-0.74,3.78
6.490,1.82,3.84,0.07,4.25
6.500,2.75,3.98,0.32,4.85
6.510,3.15,3.58,-0.12,4.78
6.520,3.18,2.81,-0.70,4.30
6.530,2.50,1.63,-0.55,3.03
6.540,1.23,1.05,0.20,1.63
6.550,0.36,0.92,0.95,1.38
6.560,0.10,0.07,1.45,1.46
6.570,-0.02,-0.86,1.66,1.87
6.580,-0.13,-1.57,1.38,2.10
6.590,-0.24,-2.12,0.88,2.31
6.600,-0.32,-2.84,0.51,2.90
6.610,-0.50,-3.68,0.29,3.72
6.620,-0.78,-4.68,0.14,4.74
6.630,-1.10,-5.77,0.01,5.87
6.640,-1.41,-6.82,-0.13,6.96
6.650,-1.77,-7.55,-0.19,7.76
6.660,-2.17,-7.79,-0.28,8.09
6.670,-2.51,-7.37,-0.36,7.79
6.680,-2.58,-6.29,-0.30,6.81
6.690,-2.47,-4.62,0.00,5.24
6.700,-2.27,-2.55,0.18,3.42
6.710,-2.05,-0.31,-0.01,2.07
6.720,-1.55,2.13,-0.42,2.67
6.730,-0.66,4.64,-0.66,4.73
6.740,0.57,6.70,-0.27,6.73
6.750,1.75,7.31,0.93,7.57
6.760,2.39,5.26,2.09,6.14
6.770,2.53,2.55,1.97,4.10
6.780,2.44,0.83,1.12,2.81
6.790,2.15,-0.01,0.22,2.16
6.800,1.52,-0.07,-0.33,1.56
6.810,0.72,0.12,-0.64,0.97
6.820,-0.04,0.27,-0.85,0.89
6.830,-0.65,0.23,-0.88,1.12
6.840,-1.01,-0.02,-0.76,1.27
6.850,-1.25,-0.40,-0.27,1.34
6.860,-1.46,-0.61,0.62,1.70
6.870,-1.61,-0.80,1.38,2.26
6.879,-1.62,-1.04,1.70,2.57
6.890,-1.42,-1.51,1.51,2.57
6.900,-1.03,-2.09,0.87,2.49
6.910,-0.41,-2.80,0.04,2.83
6.920,0.25,-3.47,-0.71,3.55
6.930,0.76,-3.87,-1.29,4.15
6.940,1.07,-4.21,-1.79,4.70
6.949,1.23,-4.57,-2.25,5.24
6.960,1.29,-4.97,-2.76,5.83
6.970,1.40,-5.09,-3.08,6.11
6.979,1.51,-4.76,-3.09,5.87
6.989,1.51,-4.19,-2.77,5.25
6.999,1.27,-3.58,-2.25,4.42
7.010,1.01,-2.94,-1.93,3.65
7.019,0.79,-2.28,-1.86,3.05
7.030,0.59,-1.48,-1.86,2.45
7.039,0.38,-0.43,-1.87,1.96
7.049,0.13,0.91,-1.76,1.99
7.060,-0.15,2.54,-1.57,2.99
7.069,-0.42,4.36,-1.27,4.56
7.079,-0.71,6.28,-0.67,6.35
7.089,-1.15,8.02,0.37,8.11
7.099,-1.68,8.89,1.65,9.20
7.109,-1.95,9.12,2.73,9.71
7.119,-1.78,9.57,2.82,10.13
7.129,-0.47,9.51,2.14,9.76
7.139,1.41,8.11,1.43,8.35
7.149,1.96,6.26,0.49,6.58
7.159,1.12,4.67,-0.49,4.82
7.169,-0.90,4.00,-1.12,4.25
7.179,-3.48,4.30,-1.44,5.72
7.189,-5.35,4.96,-1.56,7.46
7.199,-5.74,5.23,-1.11,7.84
7.209,-4.66,4.67,-0.09,6.60
7.219,-3.32,3.55,0.63,4.90
7.229,-2.27,2.08,0.67,3.15
7.239,-1.37,0.76,0.25,1.59
7.249,-0.57,-0.31,-0.01,0.64
7.259,0.23,-1.30,-0.06,1.32
7.269,1.04,-2.35,-0.14,2.58
7.279,1.84,-3.41,-0.32,3.89
7.289,2.51,-4.42,-0.52,5.11
7.299,2.96,-5.47,-0.82,6.28
7.309,3.27,-6.59,-1.25,7.47
7.319,3.49,-7.71,-1.70,8.63
7.329,3.48,-8.76,-1.72,9.58
7.339,3.42,-9.24,-1.32,9.94
7.349,3.41,-8.80,-0.66,9.46
7.359,3.26,-7.21,-0.46,7.93
7.369,2.80,-4.81,-0.65,5.61
7.379,2.01,-2.13,-0.82,3.04
7.389,1.52,-0.42,-1.43,2.13
7.399,0.86,1.87,-1.47,2.53
7.409,0.15,4.82,-1.45,5.03
7.419,-0.61,8.08,-1.25,8.20
7.429,-1.27,10.42,-0.26,10.50
7.439,-1.62,10.24,1.26,10.44
7.449,-1.05,6.85,2.93,7.52
7.459,-0.15,3.34,3.73,5.01
7.469,0.43,1.19,3.12,3.37
7.478,0.76,-0.33,2.21,2.36
7.489,0.65,-1.43,1.45,2.14
7.499,0.34,-2.11,0.54,2.20
7.509,0.17,-2.39,-0.37,2.43
7.519,0.08,-2.26,-0.98,2.47
7.529,-0.07,-1.88,-1.20,2.23
7.539,-0.14,-1.72,-1.00,2.00
7.549,-0.05,-1.86,-0.66,1.97
7.559,0.17,-1.94,-0.25,1.96
7.569,0.55,-2.05,0.26,2.14
7.579,0.93,-2.21,0.82,2.54
7.589,1.14,-2.38,1.25,2.92
7.598,1.27,-2.67,1.34,3.25
7.609,1.34,-3.01,1.22,3.51
7.618,1.43,-3.24,0.90,3.66
7.629,1.47,-3.15,0.46,3.51
7.639,1.54,-3.14,-0.24,3.51
7.649,1.65,-3.16,-1.02,3.71
7.659,1.80,-3.18,-1.89,4.12
7.669,1.86,-3.20,-2.76,4.62
7.678,1.83,-3.05,-3.53,5.01
7.688,1.73,-2.54,-4.20,5.21
7.698,1.54,-1.59,-4.66,5.16
7.708,1.11,-0.17,-4.69,4.82
7.718,0.52,1.60,-3.71,4.07
7.728,0.35,4.06,-1.51,4.35
7.738,0.88,6.74,0.82,6.84
7.748,0.61,8.77,2.23,9.07
7.758,-0.79,10.33,1.74,10.51
7.768,-2.46,11.09,1.17,11.42
7.779,-3.69,11.37,1.76,12.08
7.788,-5.44,9.78,2.73,11.51
7.798,-6.13,7.08,1.36,9.46
7.808,-4.52,4.39,-0.72,6.34
7.818,-1.31,2.81,-0.58,3.16
7.828,0.67,2.01,0.24,2.13
7.839,1.93,1.00,0.04,2.18
7.848,3.15,-0.26,-1.04,3.33
7.858,3.74,-2.10,-1.54,4.56
7.868,3.72,-3.61,-0.76,5.24
7.878,3.34,-4.11,0.18,5.30
7.888,2.02,-3.97,0.74,4.52
7.898,0.73,-4.31,0.86,4.46
7.908,0.03,-4.40,0.90,4.49
7.918,-0.33,-4.41,0.89,4.51
7.928,-0.61,-4.49,0.86,4.61
7.938,-1.14,-4.68,1.00,4.92
7.948,-2.13,-4.93,1.24,5.51
7.958,-3.44,-5.12,1.24,6.29
7.968,-4.54,-5.03,0.66,6.80
7.978,-4.95,-4.54,-0.24,6.72
7.988,-4.70,-3.74,-0.73,6.05
7.998,-3.79,-2.94,-0.45,4.81
8.008,-2.63,-2.45,0.29,3.61
8.018,-1.70,-1.48,0.73,2.37
8.028,-1.03,0.30,0.49,1.18
8.038,-0.45,2.05,-0.21,2.11
8.048,0.36,3.56,-1.06,3.73
8.058,1.36,4.83,-1.41,5.22
8.068,2.31,5.57,-0.67,6.06
8.078,3.00,5.35,0.80,6.18
8.088,3.37,3.72,1.84,5.34
8.098,3.50,1.69,1.52,4.17
8.108,3.56,-0.08,0.63,3.62
8.118,3.39,-1.45,-0.01,3.68
8.128,2.87,-2.41,-0.46,3.77
8.138,2.06,-3.02,-0.98,3.79
8.148,1.06,-3.40,-1.50,3.86
8.158,0.02,-3.53,-1.91,4.01
8.168,-0.96,-3.56,-2.12,4.25
8.178,-1.78,-3.40,-1.92,4.29
8.188,-2.28,-3.24,-1.18,4.14
8.197,-2.14,-3.08,-0.33,3.77
8.208,-1.58,-3.01,0.36,3.41
8.217,-1.00,-2.98,0.78,3.23
8.228,-0.37,-2.91,0.59,2.99
8.238,0.23,-2.74,-0.22,2.76
8.247,0.74,-2.53,-1.20,2.90
8.258,1.13,-2.24,-2.10,3.27
8.267,1.25,-1.90,-2.72,3.55
8.278,1.09,-1.56,-2.93,3.50
8.288,0.76,-1.25,-2.95,3.29
8.297,0.42,-0.76,-2.85,2.98
8.308,0.19,0.06,-2.69,2.70
8.317,0.00,1.13,-2.32,2.58
8.328,-0.16,2.32,-1.81,2.95
8.337,-0.33,3.73,-1.33,3.97
8.347,-0.61,5.50,-0.82,5.59
8.357,-1.19,7.44,0.11,7.53
8.367,-2.06,9.49,1.95,9.91
8.377,-2.75,11.27,4.31,12.38
8.387,-2.98,12.16,5.01,13.49
8.397,-2.16,10.84,4.47,11.93
8.407,-0.78,8.66,4.07,9.60
8.417,-0.24,6.94,2.82,7.50
8.427,-0.52,5.37,0.56,5.43
8.437,-1.55,3.84,-1.29,4.34
8.447,-3.14,2.92,-2.11,4.78
8.457,-4.26,2.52,-1.86,5.29
8.467,-4.31,1.93,-1.47,4.95
8.477,-3.41,1.21,-1.33,3.85
8.487,-2.07,0.09,-1.10,2.34
8.497,-0.68,-1.31,-0.86,1.70
8.507,0.60,-2.46,-0.79,2.65
8.517,1.73,-3.29,-0.74,3.79
8.527,2.66,-3.98,-0.63,4.82
8.537,3.32,-4.53,-0.55,5.64
8.547,3.73,-4.90,-0.54,6.18
8.557,3.85,-5.17,-0.63,6.47
8.567,3.75,-5.37,-0.88,6.61
8.577,3.47,-5.61,-1.22,6.71
8.587,3.03,-5.74,-1.35,6.63
8.597,2.51,-5.55,-1.03,6.17
8.607,1.98,-4.78,-0.08,5.17
8.617,1.66,-3.57,0.93,4.05
8.627,1.27,-1.63,1.80,2.74
8.637,0.58,0.50,1.96,2.10
8.647,-0.10,1.93,1.18,2.26
8.657,-0.65,2.90,0.31,2.99
8.667,-0.91,3.66,-0.31,3.78
8.677,-0.77,4.40,-0.52,4.49
8.687,0.08,4.40,-0.21,4.40
8.697,0.86,3.75,0.45,3.87
8.707,0.98,2.89,0.95,3.19
8.717,0.75,1.62,1.35,2.24
8.727,0.63,0.18,1.71,1.83
8.737,0.74,-1.10,1.90,2.32
8.747,0.93,-2.12,1.54,2.78
8.757,0.98,-2.86,0.83,3.13
8.767,0.84,-3.35,0.19,3.46
8.777,0.52,-3.40,-0.30,3.45
8.787,0.17,-3.02,-0.63,3.09
8.797,-0.05,-2.54,-0.68,2.63
8.807,-0.19,-2.19,-0.48,2.25
8.817,-0.20,-1.90,-0.07,1.91
8.827,0.03,-1.68,0.45,1.74
8.837,0.36,-1.58,0.83,1.82
8.847,0.65,-1.64,1.20,2.13
8.857,0.84,-1.68,1.39,2.34
8.866,0.95,-1.65,1.16,2.23
8.877,0.99,-1.49,0.53,1.87
8.887,0.96,-1.40,-0.39,1.74
8.896,1.01,-1.56,-1.33,2.29
8.907,1.14,-1.69,-2.19,2.99
8.916,1.42,-1.91,-3.04,3.86
8.927,1.67,-2.08,-3.75,4.60
8.936,1.80,-1.88,-4.38,5.09
8.946,1.90,-1.33,-4.95,5.47
8.956,2.04,-0.41,-4.95,5.37
8.966,2.41,0.98,-3.89,4.68
8.977,3.41,2.80,-2.12,4.90
8.986,4.33,5.02,0.04,6.63
8.996,3.45,7.98,1.29,8.79
9.007,1.25,10.41,1.31,10.57
9.016,-2.25,10.57,1.91,10.98
9.027,-4.68,10.62,2.81,11.94
9.036,-6.35,10.13,3.15,12.36
9.046,-7.11,7.99,1.84,10.86
9.056,-4.58,5.08,-0.03,6.84
9.066,-1.08,3.16,0.25,3.35
9.076,0.40,2.19,0.74,2.35
9.086,1.28,0.77,0.23,1.51
9.096,2.14,-1.07,-1.13,2.65
9.106,2.68,-2.94,-1.63,4.30
9.116,2.70,-4.09,-0.84,4.97
9.126,2.15,-3.75,0.14,4.33
9.136,0.95,-3.29,0.71,3.50
9.146,0.11,-3.43,0.74,3.51
9.156,-0.31,-3.47,0.57,3.53
9.166,-0.58,-3.67,0.43,3.74
9.176,-0.95,-4.13,0.37,4.25
9.186,-1.62,-4.75,0.48,5.04
9.196,-2.58,-5.39,0.71,6.01
9.206,-3.64,-5.83,0.90,6.93
9.216,-4.44,-6.03,0.88,7.54
9.226,-4.66,-5.89,0.47,7.53
9.236,-4.27,-5.33,-0.12,6.84
9.246,-3.22,-4.51,-0.34,5.55
9.256,-1.81,-3.17,-0.06,3.65
9.266,-0.58,-1.42,-0.02,1.54
9.276,0.30,0.32,-0.47,0.65
9.286,0.89,1.85,-1.01,2.28
9.296,1.32,3.13,-1.33,3.65
9.306,1.71,4.30,-1.27,4.80
9.316,2.10,5.14,-0.66,5.59
9.326,2.33,5.23,0.49,5.75
9.336,2.44,3.73,1.60,4.73
9.346,2.60,2.06,1.50,3.64
9.356,2.64,0.76,0.66,2.82
9.366,2.33,-0.28,-0.05,2.35
9.376,1.59,-0.90,-0.48,1.89
9.386,0.55,-1.30,-0.81,1.63
9.396,-0.41,-1.59,-1.34,2.12
9.406,-1.19,-1.80,-1.79,2.81
9.416,-1.71,-1.95,-1.79,3.15
9.426,-1.89,-2.11,-1.40,3.16
9.436,-1.70,-2.20,-0.65,2.86
9.446,-1.19,-2.16,0.05,2.47
9.456,-0.56,-2.07,0.40,2.18
9.465,-0.01,-2.08,0.49,2.14
9.476,0.47,-2.19,0.30,2.26
9.486,0.80,-2.32,-0.04,2.45
9.496,0.95,-2.43,-0.60,2.68
9.506,0.95,-2.49,-1.29,2.96
9.516,0.89,-2.50,-2.09,3.38
9.526,0.87,-2.42,-2.70,3.73
9.536,0.97,-2.02,-2.88,3.64
9.546,0.95,-1.62,-2.55,3.17
9.555,0.77,-1.34,-2.06,2.58
9.566,0.70,-1.06,-1.90,2.28
9.576,0.66,-0.73,-1.91,2.14
9.586,0.61,-0.34,-1.93,2.05
9.595,0.53,0.15,-1.93,2.01
9.606,0.39,0.85,-1.85,2.07
9.615,0.17,1.81,-1.71,2.49
9.626,-0.20,3.01,-1.41,3.33
9.636,-0.85,4.27,-0.94,4.45
9.646,-1.65,5.47,-0.20,5.72
9.655,-2.19,6.67,1.26,7.14
9.665,-2.16,7.74,2.47,8.40
9.675,-0.89,7.78,2.48,8.22
9.686,1.07,6.54,1.93,6.90
9.695,2.04,5.01,1.30,5.56
9.706,1.68,3.52,0.83,3.99
9.715,0.19,2.89,0.20,2.90
9.725,-2.07,3.23,-0.16,3.84
9.735,-4.08,4.05,-0.40,5.76
9.745,-5.16,5.02,-0.41,7.21
9.755,-5.52,5.81,0.21,8.02
9.765,-5.58,5.83,1.16,8.16
9.775,-5.35,4.86,1.61,7.40
9.785,-4.58,3.44,1.49,5.92
9.795,-3.38,2.03,1.39,4.18
9.805,-1.96,0.70,1.40,2.51
9.815,-0.61,-0.55,1.34,1.57
9.825,0.57,-1.59,1.15,2.04
9.835,1.52,-2.51,0.83,3.05
9.845,2.27,-3.42,0.49,4.14
9.855,2.77,-4.22,0.17,5.05
9.865,3.02,-4.87,-0.11,5.73
9.875,3.13,-5.37,-0.48,6.24
9.885,3.21,-5.79,-0.91,6.68
9.895,3.36,-6.17,-1.42,7.17
9.905,3.49,-6.54,-1.79,7.63
9.915,3.47,-6.43,-1.89,7.55
9.925,3.23,-5.64,-1.90,6.77
9.935,2.83,-4.40,-1.79,5.53
9.945,2.41,-2.84,-1.74,4.11
9.955,1.77,-0.76,-1.39,2.38
9.965,1.14,1.69,-1.16,2.34
9.975,0.89,3.67,-0.85,3.87
9.985,0.30,5.79,0.25,5.81
9.995,-0.25,7.12,1.22,7.23
10.005,-0.37,6.66,2.06,6.98
10.015,-0.32,5.21,2.89,5.96
10.025,-0.01,3.37,2.98,4.50
10.035,0.59,1.15,2.02,2.40
10.045,0.72,-0.77,1.36,1.72
10.055,0.48,-1.93,0.94,2.20
10.065,0.20,-2.66,0.38,2.69
10.075,0.10,-3.26,-0.11,3.26
10.085,0.09,-3.69,-0.32,3.71
10.095,-0.02,-3.81,-0.45,3.84
10.105,-0.21,-3.67,-0.51,3.71
10.115,-0.26,-3.48,-0.53,3.53
10.125,-0.16,-3.23,-0.42,3.26
10.135,0.18,-2.86,-0.32,2.89
10.145,0.59,-2.41,-0.14,2.49
10.155,0.96,-2.03,0.20,2.25
10.165,1.30,-1.77,0.49,2.25
10.175,1.65,-1.62,0.67,2.41
10.185,1.97,-1.60,0.65,2.62
10.195,2.17,-1.52,0.43,2.68
10.205,2.17,-1.10,-0.19,2.44
10.215,2.07,-1.01,-1.03,2.53
10.225,1.93,-1.34,-1.77,2.94
10.235,1.76,-1.71,-2.38,3.42
10.245,1.66,-1.93,-2.84,3.81
10.254,1.65,-1.88,-3.17,4.04
10.264,1.70,-1.61,-3.40,4.13
10.275,1.73,-1.16,-3.35,3.95
10.285,1.89,-0.13,-2.61,3.23
10.294,2.51,1.61,-1.31,3.26
10.305,3.06,4.04,-0.05,5.07
10.314,2.01,7.32,0.49,7.61
10.325,0.11,10.31,-0.04,10.31
10.334,-2.26,11.74,0.14,11.96
10.346,-4.12,12.25,1.40,13.00
10.355,-5.86,11.28,2.92,13.04
10.364,-7.08,8.53,2.76,11.43
10.374,-5.36,5.38,0.83,7.64
10.384,-1.59,3.32,0.74,3.76
10.394,0.46,2.55,1.26,2.88
10.405,1.38,1.46,0.59,2.09
10.414,2.22,0.40,-1.09,2.51
10.424,2.96,-0.77,-2.60,4.01
10.434,2.88,-2.02,-2.04,4.07
10.444,2.65,-2.46,-0.64,3.68
10.454,2.19,-1.88,0.42,2.92
10.464,1.49,-2.19,0.91,2.81
10.474,0.89,-2.80,1.07,3.13
10.484,0.46,-3.22,1.10,3.43
10.494,0.08,-3.63,1.12,3.80
10.504,-0.43,-4.08,1.09,4.24
10.514,-1.23,-4.64,1.12,4.93
10.524,-2.27,-5.23,1.25,5.83
10.534,-3.38,-5.63,1.28,6.69
10.544,-4.13,-5.60,0.92,7.02
10.554,-4.27,-5.05,0.25,6.62
10.564,-3.70,-4.27,-0.26,5.65
10.574,-2.69,-3.63,-0.24,4.53
10.584,-1.89,-3.01,0.02,3.56
10.594,-1.60,-2.01,0.03,2.57
10.604,-1.58,-0.58,-0.37,1.72
10.614,-1.36,1.05,-0.94,1.96
10.624,-0.67,2.50,-1.30,2.90
10.634,0.32,3.72,-1.20,3.92
10.644,1.53,4.19,-0.36,4.48
10.654,2.71,3.41,0.79,4.42
10.664,3.42,1.89,1.38,4.15
10.674,3.73,0.33,1.14,3.92
10.684,3.76,-1.22,0.48,3.98
10.694,3.44,-2.57,-0.27,4.30
10.704,2.78,-3.28,-0.92,4.39
10.714,1.90,-3.46,-1.36,4.18
10.724,1.02,-3.49,-1.68,4.00
10.734,0.24,-3.34,-1.92,3.86
10.744,-0.47,-3.18,-2.07,3.83
10.754,-1.12,-2.94,-1.92,3.69
10.764,-1.64,-2.62,-1.33,3.37
10.774,-1.93,-2.27,-0.54,3.03
10.784,-1.90,-1.79,0.24,2.62
10.794,-1.67,-1.25,0.72,2.21
10.804,-1.33,-0.78,0.63,1.67
10.813,-0.93,-0.51,-0.06,1.06
10.824,-0.35,-0.47,-1.03,1.19
10.834,0.33,-0.63,-1.84,1.97
10.844,0.90,-0.89,-2.32,2.64
10.854,1.22,-0.98,-2.43,2.89
10.864,1.12,-0.91,-2.24,2.67
10.873,0.76,-0.63,-2.00,2.23
10.884,0.42,-0.21,-1.84,1.90
10.894,0.24,0.17,-1.73,1.75
10.904,0.14,0.47,-1.64,1.71
10.913,0.03,0.90,-1.53,1.78
10.923,-0.21,1.56,-1.31,2.05
10.933,-0.67,2.39,-0.93,2.65
10.943,-1.32,3.39,-0.38,3.66
10.953,-2.26,4.48,0.30,5.03
10.963,-3.34,5.51,0.98,6.52
10.973,-4.08,6.37,2.02,7.83
10.983,-4.05,6.83,2.75,8.40
10.993,-2.73,6.94,2.41,7.83
11.003,-0.63,6.61,2.03,6.94
11.013,0.74,5.71,1.53,5.96
11.023,0.80,4.53,0.33,4.61
11.033,-0.61,3.62,-0.46,3.70
11.044,-2.69,3.49,-0.86,4.49
11.053,-4.12,3.52,-1.25,5.56
11.063,-4.34,3.46,-1.23,5.68
11.073,-3.57,3.23,-0.52,4.84
11.083,-2.54,2.72,0.25,3.73
11.093,-1.78,1.82,0.65,2.63
11.103,-1.16,0.82,0.47,1.50
11.113,-0.48,-0.13,0.17,0.52
11.123,0.24,-1.07,0.14,1.10
11.133,0.96,-1.95,0.20,2.19
11.143,1.70,-2.80,0.20,3.28
11.153,2.36,-3.52,0.20,4.24
11.163,2.88,-4.07,0.21,4.99
11.173,3.19,-4.51,0.15,5.52
11.183,3.29,-4.79,-0.12,5.81
11.193,3.21,-5.00,-0.45,5.96
11.203,3.16,-5.02,-0.72,5.98
11.213,3.09,-4.76,-0.68,5.72
11.223,2.92,-4.09,-0.39,5.04
11.233,2.61,-2.81,-0.14,3.84
11.243,2.20,-1.56,0.03,2.70
11.253,1.85,-0.62,-0.02,1.95
11.263,1.34,0.66,-0.20,1.51
11.273,0.93,1.73,-0.70,2.08
11.283,0.46,2.87,-0.79,3.01
11.293,0.04,4.15,-0.47,4.18
11.303,-0.06,4.70,0.04,4.70
11.313,0.17,3.88,0.70,3.95
11.323,0.20,2.49,1.40,2.86
11.333,-0.09,1.00,1.87,2.12
11.343,-0.36,-0.43,1.92,2.00
11.353,-0.35,-1.59,1.77,2.41
11.363,-0.13,-2.41,1.37,2.78
11.373,0.17,-3.02,0.70,3.10
11.383,0.34,-3.52,0.10,3.54
11.393,0.33,-3.72,-0.29,3.75
11.403,0.24,-3.46,-0.53,3.51
11.413,0.18,-2.82,-0.52,2.87
11.423,0.21,-2.08,-0.37,2.12
11.433,0.42,-1.38,-0.23,1.46
11.443,0.76,-0.90,0.07,1.18
11.453,1.13,-0.74,0.49,1.44
11.463,1.43,-0.81,0.84,1.85
11.473,1.64,-1.06,0.90,2.15
11.483,1.82,-1.46,0.64,2.42
11.493,1.83,-1.74,0.19,2.53
11.503,1.61,-1.73,-0.39,2.39
11.512,1.39,-2.05,-1.01,2.68
11.523,1.28,-2.51,-1.54,3.21
11.533,1.29,-2.84,-1.99,3.70
11.543,1.33,-3.02,-2.38,4.07
11.553,1.43,-3.10,-2.69,4.35
11.563,1.61,-2.99,-2.95,4.50
11.572,1.74,-2.60,-3.12,4.42
11.582,1.71,-1.89,-3.18,4.08
11.592,1.61,-0.75,-2.78,3.30
11.603,1.73,0.93,-1.68,2.58
11.612,2.24,2.98,-0.44,3.76
11.623,2.28,5.81,0.95,6.31
11.632,0.85,9.33,1.58,9.50
11.643,-0.77,11.40,0.49,11.44
11.653,-1.84,11.36,0.08,11.51
11.663,-2.42,10.58,0.93,10.89
11.672,-3.26,9.08,1.93,9.84
11.682,-4.14,7.24,1.09,8.41
11.692,-3.64,5.31,-0.92,6.50
11.702,-1.24,4.07,-0.86,4.34
11.712,0.46,3.68,-0.16,3.71
11.722,1.16,2.97,-0.80,3.29
11.732,1.54,2.43,-1.98,3.49
11.742,1.55,1.57,-2.76,3.53
11.752,1.18,0.20,-2.36,2.65
11.762,0.75,-0.94,-0.92,1.52
11.772,0.36,-1.31,0.26,1.39
11.782,0.05,-1.87,1.06,2.15
11.792,0.01,-2.33,1.64,2.85
11.802,0.03,-2.55,1.83,3.13
11.812,-0.05,-2.89,1.82,3.42
11.822,-0.23,-3.55,1.67,3.93
11.832,-0.60,-4.32,1.51,4.62
11.842,-1.08,-5.06,1.37,5.35
11.852,-1.67,-5.77,1.15,6.11
11.862,-2.24,-6.22,0.79,6.65
11.872,-2.59,-6.16,0.28,6.68
11.882,-2.63,-5.56,-0.15,6.15
11.892,-2.35,-4.55,-0.25,5.13
11.902,-1.95,-3.17,0.04,3.72
11.912,-1.59,-1.74,0.48,2.40
11.922,-1.48,-0.43,0.67,1.68
11.932,-1.54,0.63,0.47,1.73
11.942,-1.43,1.56,0.13,2.12
11.952,-0.88,2.30,0.01,2.46
11.962,-0.05,2.53,0.24,2.55
11.972,0.90,1.70,0.64,2.03
11.982,1.59,0.40,0.85,1.84
11.992,1.91,-0.70,0.76,2.17
12.002,1.94,-1.48,0.23,2.45
12.012,1.80,-1.99,-0.51,2.73
12.022,1.48,-2.20,-1.01,2.84
12.032,1.12,-2.24,-1.22,2.79
12.042,0.90,-2.22,-1.21,2.69
12.052,0.79,-2.21,-1.05,2.57
12.062,0.71,-2.17,-0.81,2.43
12.072,0.59,-2.02,-0.61,2.19
12.082,0.33,-1.83,-0.31,1.89
12.092,0.00,-1.66,0.03,1.66
12.102,-0.34,-1.40,0.31,1.47
12.112,-0.60,-0.94,0.52,1.23
12.122,-0.73,-0.39,0.48,0.96
12.132,-0.71,0.06,0.22,0.75
12.142,-0.58,0.46,-0.09,0.75
12.152,-0.42,0.53,-0.36,0.77
12.162,-0.21,0.12,-0.71,0.75
12.172,0.07,-0.48,-1.23,1.32
12.182,0.42,-0.94,-1.74,2.02
12.192,0.89,-1.19,-2.02,2.51
12.202,1.46,-1.25,-2.00,2.77
12.212,1.89,-1.25,-1.87,2.94
12.222,1.91,-1.14,-1.89,2.92
12.232,1.48,-0.66,-1.98,2.56
12.242,0.98,-0.15,-2.04,2.27
12.252,0.63,0.16,-1.99,2.10
12.261,0.41,0.40,-1.73,1.82
12.271,0.26,0.68,-1.30,1.49
12.281,0.09,1.05,-0.80,1.32
12.291,-0.20,1.57,-0.36,1.62
12.301,-0.78,2.25,-0.07,2.38
12.311,-1.69,3.11,-0.06,3.54
12.321,-2.78,4.12,0.09,4.97
12.331,-3.63,5.28,1.06,6.50
12.341,-3.75,6.69,1.88,7.90
12.351,-2.40,7.73,1.96,8.33
12.361,0.08,7.34,1.76,7.55
12.371,1.48,6.29,1.55,6.65
12.381,1.08,5.16,1.13,5.39
12.391,-0.90,4.36,0.34,4.46
12.401,-3.42,4.22,-0.46,5.45
12.411,-5.11,4.68,-1.09,7.01
12.421,-5.66,5.35,-1.05,7.86
12.431,-5.09,5.55,-0.44,7.54
12.441,-3.89,4.39,0.11,5.86
12.451,-2.83,2.58,0.50,3.86
12.461,-1.85,1.19,0.45,2.25
12.471,-0.85,0.33,-0.05,0.92
12.481,-0.04,-0.41,-0.24,0.47
12.491,0.69,-1.18,-0.25,1.39
12.501,1.42,-1.96,-0.25,2.43
12.511,2.12,-2.67,-0.37,3.43
12.521,2.75,-3.35,-0.47,4.36
12.531,3.25,-4.01,-0.53,5.18
12.541,3.50,-4.63,-0.61,5.83
12.551,3.49,-5.22,-0.81,6.33
12.561,3.40,-5.76,-1.12,6.78
12.571,3.49,-6.28,-1.59,7.36
12.581,3.76,-6.70,-1.88,7.91
12.591,4.07,-6.72,-1.60,8.02
12.601,3.93,-6.11,-1.03,7.34
12.611,3.19,-4.65,-0.60,5.67
12.621,2.21,-2.56,-0.31,3.39
12.631,1.31,-0.25,-0.48,1.42
12.641,0.80,1.42,-0.89,1.86
12.651,0.05,3.21,-0.50,3.25
12.661,-0.94,5.13,-0.04,5.21
12.671,-1.79,6.64,0.60,6.90
12.681,-2.02,6.82,1.30,7.23
12.691,-1.79,5.31,2.28,6.06
12.701,-0.81,2.67,2.62,3.82
12.711,0.02,0.69,2.03,2.14
12.721,0.21,-0.56,1.66,1.76
12.731,0.12,-1.52,1.33,2.03
12.741,0.09,-2.12,0.87,2.30
12.751,0.30,-2.45,0.45,2.51
12.761,0.49,-2.55,0.14,2.60
12.770,0.50,-2.41,-0.17,2.46
12.781,0.43,-2.23,-0.53,2.33
12.791,0.38,-2.13,-0.75,2.29
12.801,0.28,-1.91,-0.72,2.06
12.811,0.26,-1.45,-0.42,1.53
12.820,0.43,-1.16,-0.04,1.24
12.831,0.65,-1.15,0.38,1.38
12.841,0.89,-1.26,0.79,1.73
12.851,1.16,-1.46,1.11,2.17
12.861,1.47,-1.72,1.23,2.58
12.871,1.61,-1.85,1.12,2.70
12.881,1.49,-1.70,0.68,2.36
12.890,1.43,-1.95,-0.06,2.42
12.901,1.53,-2.51,-0.74,3.03
12.911,1.67,-3.09,-1.31,3.75
12.921,1.74,-3.39,-1.84,4.23
12.931,1.78,-3.45,-2.34,4.54
12.941,1.79,-3.37,-2.80,4.73
12.950,1.74,-3.02,-3.17,4.71
12.961,1.70,-2.44,-3.41,4.53
12.970,1.77,-1.51,-3.39,4.11
12.980,1.98,-0.06,-2.57,3.25
12.990,2.75,1.82,-1.36,3.57
13.001,3.56,3.90,-0.04,5.29
13.010,2.44,6.84,0.76,7.30
13.020,0.09,9.48,0.03,9.48
13.030,-2.33,10.65,-0.46,10.91
13.041,-4.29,10.99,0.36,11.80
13.051,-5.51,10.65,1.77,12.12
13.060,-6.37,9.38,2.21,11.55
13.070,-5.59,7.59,0.64,9.45
13.080,-1.90,5.01,-0.14,5.36
13.090,0.90,4.18,0.39,4.29
13.100,1.84,3.52,0.23,3.98
13.110,2.33,2.75,-0.85,3.71
13.120,2.37,1.57,-2.01,3.48
13.130,1.94,-0.10,-2.08,2.85
13.140,1.26,-1.39,-0.94,2.10
13.150,0.69,-1.33,0.19,1.51
13.160,0.19,-1.56,0.81,1.77
13.170,-0.02,-2.10,0.92,2.29
13.180,-0.03,-2.36,0.67,2.46
13.190,-0.00,-2.78,0.48,2.82
13.200,-0.07,-3.50,0.42,3.52
13.210,-0.36,-4.45,0.50,4.50
13.220,-0.86,-5.54,0.67,5.65
13.230,-1.52,-6.64,0.78,6.86
13.240,-2.28,-7.47,0.78,7.85
13.250,-2.96,-7.52,0.48,8.10
13.260,-3.34,-6.77,-0.14,7.55
13.270,-3.37,-5.56,-0.53,6.53
13.280,-3.14,-4.00,-0.24,5.09
13.290,-2.67,-2.20,0.34,3.48
13.300,-2.17,-0.46,0.49,2.27
13.310,-1.70,1.19,0.14,2.08
13.320,-1.09,2.67,-0.15,2.89
13.330,-0.23,3.76,-0.13,3.77
13.340,0.73,4.10,0.14,4.17
13.350,1.54,3.25,0.75,3.68
13.360,2.03,1.68,1.42,2.99
13.370,2.21,0.40,1.59,2.75
13.380,2.27,-0.64,1.07,2.59
13.390,2.11,-1.47,0.24,2.58
13.400,1.71,-1.99,-0.54,2.68
13.410,1.17,-2.20,-1.05,2.71
13.420,0.66,-2.25,-1.40,2.73
13.430,0.26,-2.27,-1.72,2.86
13.439,-0.02,-2.29,-1.77,2.89
13.450,-0.26,-2.32,-1.54,2.80
13.460,-0.44,-2.35,-1.00,2.60
13.470,-0.57,-2.28,-0.29,2.36
13.480,-0.60,-2.09,0.41,2.21
13.490,-0.50,-1.71,0.71,1.92
13.500,-0.26,-1.43,0.76,1.65
13.510,-0.02,-1.20,0.56,1.33
13.520,0.17,-1.01,0.06,1.03
13.530,0.31,-0.88,-0.62,1.12
13.540,0.42,-0.83,-1.33,1.62
13.550,0.50,-0.83,-1.84,2.08
13.560,0.61,-0.81,-2.09,2.33
13.570,0.82,-0.79,-2.13,2.41
13.579,1.15,-0.77,-2.14,2.55
13.589,1.46,-0.80,-2.19,2.75
13.600,1.47,-0.78,-2.11,2.69
13.609,1.24,-0.59,-1.88,2.33
13.619,1.07,-0.52,-1.67,2.05
13.629,0.95,-0.62,-1.54,1.91
13.640,0.82,-0.60,-1.42,1.74
13.649,0.52,-0.20,-1.32,1.44
13.659,0.00,0.63,-1.24,1.39
13.669,-0.75,1.80,-1.15,2.27
13.679,-1.71,3.25,-0.92,3.79
13.689,-2.83,4.85,-0.48,5.64
13.699,-3.98,6.43,0.34,7.57
13.709,-4.71,7.95,1.77,9.41
13.719,-4.46,9.31,2.74,10.68
13.729,-2.65,9.61,2.41,10.25
13.739,-0.52,8.01,1.92,8.26
13.749,0.40,6.11,1.05,6.21
13.759,0.24,4.23,0.14,4.24
13.769,-0.77,3.14,-0.56,3.28
13.779,-2.49,3.11,-0.84,4.07
13.789,-4.14,3.55,-1.06,5.55
13.799,-5.12,3.90,-1.04,6.52
13.809,-5.22,3.90,-0.48,6.53
13.819,-4.54,3.27,0.26,5.60
13.829,-3.59,2.25,0.84,4.32
13.839,-2.53,1.21,0.80,2.91
13.849,-1.46,0.34,0.32,1.54
13.859,-0.53,-0.43,-0.04,0.69
13.869,0.29,-1.24,-0.12,1.28
13.879,1.06,-2.07,-0.17,2.33
13.889,1.88,-2.91,-0.25,3.47
13.899,2.70,-3.81,-0.33,4.68
13.909,3.43,-4.73,-0.38,5.86
13.919,3.97,-5.59,-0.37,6.87
13.929,4.30,-6.32,-0.46,7.66
13.939,4.38,-6.78,-0.80,8.11
13.949,4.36,-6.98,-1.26,8.32
13.959,4.33,-7.04,-1.74,8.45
13.969,4.13,-6.75,-1.86,8.12
13.979,3.52,-5.46,-1.68,6.71
13.989,2.76,-3.72,-1.53,4.88
13.999,1.98,-1.96,-1.38,3.11
14.009,1.26,-0.01,-1.33,1.84
14.019,0.38,2.61,-1.02,2.83
14.029,-0.58,5.62,-0.72,5.70
14.039,-1.50,7.94,-0.60,8.10
14.049,-2.49,8.94,0.44,9.29
14.059,-2.84,8.12,1.80,8.79
14.069,-2.52,5.21,3.53,6.78
14.079,-1.73,2.03,4.77,5.47
14.089,-1.01,0.12,3.76,3.90
14.099,-0.54,-1.13,2.18,2.51
14.109,-0.35,-2.13,1.32,2.53
14.119,-0.12,-2.80,0.58,2.86
14.129,0.15,-3.33,-0.23,3.34
14.139,0.43,-3.65,-0.76,3.75
14.149,0.50,-3.78,-0.92,3.92
14.159,0.32,-3.78,-1.02,3.93
14.169,0.15,-3.67,-1.09,3.83
14.179,0.25,-3.63,-1.17,3.82
14.189,0.60,-3.58,-1.07,3.78
14.198,0.96,-3.25,-0.62,3.44
14.209,1.31,-2.86,-0.22,3.15
14.218,1.56,-2.53,-0.02,2.97
14.228,1.70,-2.25,0.14,2.82
14.238,1.69,-1.91,0.42,2.59
14.248,1.68,-1.51,0.53,2.32
14.258,1.78,-1.27,0.40,2.22
14.268,1.96,-1.22,-0.01,2.31
14.278,2.21,-1.36,-0.58,2.66
14.288,2.38,-1.50,-1.16,3.05
14.298,2.37,-1.69,-1.78,3.41
14.308,2.19,-1.80,-2.42,3.73
14.318,1.97,-1.81,-2.95,3.98
14.328,1.71,-1.59,-3.32,4.06
14.338,1.40,-1.13,-3.54,3.97
14.348,1.14,-0.43,-3.63,3.83
14.358,1.04,0.54,-3.56,3.75
14.368,1.14,1.75,-2.81,3.50
14.378,1.53,3.35,-0.98,3.81
14.388,2.45,4.70,0.37,5.31
14.398,2.62,6.16,1.34,6.83
14.408,0.91,8.23,1.18,8.36
14.418,-1.78,9.44,1.13,9.67
14.428,-4.47,9.92,1.61,10.99
14.439,-5.84,9.67,1.58,11.41
14.448,-6.47,8.24,1.12,10.53
14.458,-5.06,5.77,0.63,7.70
14.468,-1.24,2.79,0.58,3.11
14.478,1.02,2.54,0.60,2.80
14.488,1.63,2.33,0.23,2.85
14.498,1.87,2.04,-0.81,2.88
14.508,2.16,1.44,-2.27,3.44
14.518,2.11,0.16,-2.39,3.20
14.528,1.81,-1.43,-1.31,2.65
14.538,1.57,-1.85,-0.36,2.45
14.548,0.96,-1.82,0.29,2.08
14.558,0.44,-2.49,0.74,2.64
14.568,0.12,-2.89,1.11,3.10
14.578,-0.11,-3.11,1.29,3.37
14.588,-0.32,-3.45,1.37,3.73
14.598,-0.64,-3.93,1.43,4.23
14.608,-1.11,-4.43,1.51,4.81
14.618,-1.67,-4.76,1.38,5.23
14.629,-2.28,-4.81,0.93,5.41
14.638,-2.82,-4.58,0.21,5.38
14.648,-3.08,-4.11,-0.56,5.17
14.658,-2.82,-3.36,-1.02,4.51
14.668,-2.10,-2.35,-1.03,3.32
14.678,-1.19,-1.31,-0.90,1.99
14.688,-0.43,-0.31,-0.97,1.10
14.698,0.24,0.42,-1.14,1.24
14.708,0.85,0.93,-1.35,1.85
14.718,1.34,1.37,-1.28,2.30
14.728,1.71,1.48,-0.91,2.44
14.738,1.99,1.23,-0.34,2.36
14.748,2.09,0.59,0.13,2.18
14.758,2.06,-0.11,0.28,2.08
14.768,1.91,-0.75,0.18,2.06
14.777,1.52,-1.41,-0.05,2.08
14.788,0.93,-2.10,-0.34,2.33
14.798,0.21,-2.57,-0.70,2.67
14.808,-0.52,-2.66,-1.07,2.92
14.818,-1.24,-2.54,-1.26,3.09
14.828,-1.80,-2.27,-1.16,3.12
14.838,-2.12,-2.00,-0.64,2.99
14.847,-2.17,-1.76,0.05,2.80
14.858,-2.06,-1.63,0.54,2.67
14.867,-1.84,-1.68,0.89,2.65
14.877,-1.52,-1.86,1.12,2.65
14.887,-1.17,-2.13,1.23,2.73
14.897,-0.83,-2.44,1.09,2.80
14.907,-0.47,-2.63,0.65,2.76
14.917,-0.08,-2.71,-0.01,2.71
14.927,0.31,-2.69,-0.63,2.78
14.937,0.65,-2.57,-1.01,2.83
14.947,0.92,-2.33,-1.18,2.77
14.957,1.16,-2.02,-1.29,2.66
14.967,1.37,-1.57,-1.49,2.56
14.977,1.54,-0.90,-1.82,2.55
14.987,1.65,-0.07,-2.19,2.74
14.997,1.73,0.89,-2.31,3.03
15.007,1.88,1.79,-1.98,3.26
15.017,1.89,2.23,-1.20,3.16
15.027,1.72,2.32,-0.15,2.90
15.037,1.31,2.16,0.64,2.60
15.047,0.75,1.88,0.95,2.24
15.057,0.15,1.65,0.82,1.85
15.067,-0.35,1.71,0.18,1.75
15.077,-0.78,2.19,-0.95,2.51
15.087,-1.22,2.70,-2.45,3.85
15.097,-1.73,3.05,-3.59,5.02
15.107,-2.16,3.23,-3.91,5.51
15.117,-2.26,3.36,-3.67,5.47
15.127,-2.00,3.41,-3.30,5.15
15.137,-1.54,3.41,-3.14,4.88
15.147,-1.35,3.78,-3.35,5.23
15.157,-1.67,4.50,-3.51,5.95
15.167,-2.36,5.52,-2.77,6.61
15.177,-2.51,6.99,-0.30,7.44
15.187,-1.67,9.00,1.29,9.25
15.197,-0.38,10.45,1.90,10.63
15.207,1.12,10.18,2.45,10.53
15.217,1.83,8.02,2.51,8.60
15.227,1.24,5.73,2.07,6.21
15.237,-0.59,4.27,1.34,4.51
15.247,-2.28,3.27,0.20,3.99
15.257,-3.15,2.48,-0.74,4.08
15.267,-3.45,1.58,-0.77,3.88
15.277,-3.20,0.54,-0.45,3.27
15.287,-2.55,-0.59,-0.22,2.62
15.297,-1.60,-1.82,-0.34,2.45
15.307,-0.57,-3.09,-0.70,3.22
15.317,0.35,-4.35,-0.99,4.48
15.327,1.07,-5.49,-1.21,5.73
15.337,1.66,-6.42,-1.30,6.75
15.347,2.20,-7.09,-1.22,7.52
15.357,2.74,-7.48,-1.03,8.03
15.367,3.30,-7.56,-0.80,8.28
15.377,3.76,-7.31,-0.61,8.24
15.387,4.01,-6.78,-0.66,7.91
15.397,4.17,-6.11,-0.87,7.44
15.407,4.33,-5.23,-0.99,6.86
15.417,4.49,-4.25,-0.83,6.24
15.427,4.55,-3.11,-0.45,5.53
15.437,4.43,-1.74,0.07,4.75
15.447,4.11,-0.17,0.61,4.15
15.457,3.50,1.53,1.00,3.95
15.467,2.62,3.05,1.17,4.18
15.477,1.39,4.15,1.11,4.52
15.487,0.14,4.74,0.87,4.83
15.497,-0.67,4.90,0.45,4.96
15.506,-0.88,4.54,0.03,4.62
15.517,-0.39,3.42,0.00,3.44
15.526,0.33,2.12,0.23,2.15
15.537,0.38,1.25,0.62,1.45
15.546,-0.04,0.43,1.19,1.27
15.556,-0.60,-0.37,1.70,1.84
15.566,-1.04,-1.05,1.92,2.42
15.577,-1.20,-1.61,1.87,2.74
15.586,-1.15,-2.11,1.66,2.91
15.597,-0.99,-2.58,1.31,3.06
15.606,-0.87,-3.12,0.91,3.37
15.616,-0.75,-3.61,0.37,3.71
15.626,-0.56,-3.83,-0.24,3.88
15.636,-0.30,-3.85,-0.67,3.92
15.646,-0.09,-3.65,-0.80,3.73
15.656,0.24,-3.44,-0.90,3.57
15.666,0.61,-3.19,-0.97,3.39
15.676,0.97,-2.57,-1.00,2.93
15.686,1.35,-1.87,-1.04,2.53
15.696,1.71,-1.24,-1.09,2.37
15.706,2.03,-0.67,-1.02,2.36
15.716,2.30,-0.18,-0.83,2.46
15.726,2.66,0.06,-0.70,2.75
15.736,2.97,0.27,-0.57,3.03
15.746,3.14,0.49,-0.45,3.21
15.756,3.16,0.72,-0.33,3.26
15.766,3.05,0.90,-0.15,3.18
15.776,2.76,1.06,0.05,2.95
15.786,2.36,1.19,0.17,2.64
15.796,1.97,1.20,0.13,2.31
15.806,1.67,1.02,-0.08,1.96
15.816,1.47,0.77,-0.36,1.70
15.826,1.33,0.54,-0.63,1.57
15.836,1.29,0.33,-0.91,1.62
15.846,1.41,0.16,-1.15,1.83
15.856,1.68,0.03,-1.36,2.16
15.866,2.05,-0.10,-1.54,2.57
15.876,2.47,-0.28,-1.80,3.07
15.886,2.91,-0.45,-2.03,3.58
15.896,3.30,-0.51,-2.18,3.99
15.906,3.60,-0.42,-2.19,4.23
15.916,3.85,-0.27,-2.16,4.42
15.926,4.02,-0.04,-2.13,4.55
15.936,4.14,0.25,-2.27,4.73
15.946,4.12,0.42,-2.63,4.91
15.956,4.04,0.41,-3.27,5.22
15.966,3.81,0.48,-3.86,5.44
15.976,3.61,1.01,-3.83,5.36
15.985,3.72,2.01,-3.32,5.38
15.996,4.00,3.27,-2.84,5.90
16.006,3.71,4.26,-2.72,6.27
16.016,1.95,5.67,-2.03,6.33
16.026,-1.85,8.05,-0.27,8.26
16.036,-5.77,10.15,1.16,11.73
16.046,-8.14,11.38,2.33,14.18
16.056,-7.12,9.09,3.79,12.15
16.066,-3.84,3.24,4.19,6.54
16.076,-1.98,-0.07,4.23,4.67
16.086,-0.82,-1.06,4.43,4.63
16.096,0.56,-0.88,4.44,4.56
16.105,1.19,-0.42,4.54,4.71
16.116,0.54,-0.51,4.26,4.33
16.126,-0.57,-0.59,3.88,3.97
16.136,-1.79,-0.48,3.39,3.86
16.146,-3.05,-0.45,2.59,4.03
16.156,-4.18,-0.65,1.64,4.53
16.165,-5.33,-1.64,0.83,5.63
16.176,-7.04,-3.67,0.67,7.97
16.185,-9.12,-5.57,1.35,10.78
16.195,-10.42,-6.52,2.51,12.54
16.205,-10.42,-6.33,3.27,12.62
16.215,-9.37,-5.28,3.04,11.17
16.225,-7.37,-4.32,2.25,8.83
16.235,-4.48,-4.19,1.50,6.32
16.245,-2.56,-4.11,-0.26,4.85
16.255,-1.31,-3.94,-2.35,4.77
16.265,-0.42,-3.65,-4.36,5.70
16.275,0.16,-3.05,-5.92,6.66
16.285,0.52,-2.07,-6.42,6.77
16.295,0.84,-0.77,-5.53,5.65
16.305,1.16,0.34,-3.74,3.93
16.315,1.47,1.25,-2.11,2.86
16.325,1.55,1.77,-0.99,2.55
16.335,1.24,1.67,-0.53,2.15
16.345,0.89,1.55,-0.42,1.84
16.355,0.55,1.82,-0.35,1.93
16.365,0.12,2.26,-0.26,2.28
16.375,-0.52,2.61,0.03,2.66
16.385,-1.53,2.68,0.43,3.11
16.395,-2.48,2.26,0.44,3.38
16.405,-2.70,1.10,-0.56,2.97
16.415,-2.09,-0.25,-1.72,2.72
16.425,-1.21,-1.36,-2.47,3.07
16.435,-0.38,-2.39,-2.99,3.84
16.445,0.27,-3.19,-3.49,4.73
16.455,0.67,-3.58,-4.18,5.54
16.465,0.80,-3.51,-4.86,6.05
16.475,0.86,-2.93,-5.47,6.26
16.485,1.00,-1.99,-5.72,6.13
16.495,1.35,-0.66,-5.44,5.64
16.505,1.99,0.88,-5.57,5.98
16.515,2.76,2.12,-5.77,6.74
16.525,3.61,2.92,-5.31,7.05
16.535,4.33,3.38,-3.89,6.73
16.545,4.89,3.74,-2.05,6.49
16.555,5.22,4.01,-0.31,6.59
16.565,5.31,3.90,0.75,6.63
16.575,4.99,3.17,0.73,5.95
16.585,3.73,2.00,-0.38,4.25
16.595,1.99,0.90,-1.75,2.80
16.605,0.94,-0.00,-2.71,2.86
16.615,0.61,-0.55,-3.52,3.61
16.625,0.71,-0.85,-3.99,4.14
16.635,1.05,-1.11,-3.76,4.06
16.645,1.24,-1.22,-2.91,3.39
16.655,1.30,-1.04,-1.68,2.36
16.665,1.33,-0.52,-0.33,1.47
16.675,1.56,0.19,0.77,1.76
16.685,1.99,0.94,1.03,2.43
16.695,2.48,1.88,0.81,3.21
16.705,2.60,2.85,1.06,4.00
16.715,2.35,3.32,1.18,4.23
16.725,1.99,3.23,0.88,3.89
16.735,1.59,2.82,1.00,3.38
16.745,0.88,2.12,1.76,2.89
16.754,-0.06,1.17,2.57,2.82
16.765,-0.82,-0.00,2.73,2.85
16.774,-1.33,-1.26,2.26,2.91
16.785,-1.60,-2.22,1.64,3.19
16.794,-1.68,-2.86,1.35,3.58
16.805,-1.50,-3.18,1.32,3.75
16.814,-0.66,-3.89,1.69,4.29
16.825,0.51,-4.53,1.95,4.96
16.834,1.36,-4.34,1.97,4.96
16.844,1.65,-3.21,1.78,4.02
16.854,1.36,-0.38,1.26,1.90
16.865,1.20,3.42,0.50,3.66
16.875,1.69,7.11,-0.21,7.31
16.884,3.19,9.92,-0.93,10.46
16.894,5.14,11.04,0.09,12.18
16.905,6.24,9.96,2.02,11.92
16.915,6.13,7.03,2.71,9.71
16.924,4.98,3.34,2.56,6.52
16.934,3.83,0.11,2.15,4.40
16.944,2.90,-2.09,1.37,3.83
16.954,2.30,-2.53,0.86,3.53
16.964,2.12,-1.33,0.29,2.52
16.974,1.96,-0.36,-0.56,2.07
16.984,1.95,-0.01,-1.25,2.32
16.994,2.07,0.27,-1.41,2.51
17.004,2.30,0.52,-1.24,2.67
17.014,2.60,0.40,-0.91,2.78
17.024,2.65,-0.38,-0.70,2.77
17.034,2.35,-1.45,-0.77,2.86
17.044,1.89,-2.18,-0.81,3.00
17.054,1.43,-2.36,-0.64,2.83
17.064,1.06,-2.17,-0.31,2.43
17.074,0.85,-1.87,-0.01,2.05
17.084,0.90,-1.55,0.07,1.80
17.094,1.17,-1.31,0.01,1.75
17.104,1.47,-1.19,-0.09,1.90
17.114,1.64,-1.09,-0.14,1.97
17.124,1.63,-1.11,-0.27,1.99
17.134,1.58,-1.27,-0.51,2.09
17.144,1.58,-1.35,-0.74,2.21
17.154,1.69,-1.27,-0.94,2.31
17.164,1.82,-1.18,-1.15,2.45
17.174,1.90,-1.08,-1.40,2.60
17.184,1.97,-0.92,-1.60,2.69
17.194,2.05,-0.66,-1.72,2.76
17.204,2.20,-0.19,-1.78,2.83
17.214,2.34,0.64,-1.83,3.04
17.224,2.49,1.76,-1.70,3.49
17.234,2.79,2.99,-1.29,4.29
17.244,3.26,4.64,-0.50,5.69
17.254,3.24,7.19,0.79,7.93
17.264,2.29,10.07,1.44,10.43
17.274,0.85,11.79,0.55,11.83
17.285,-0.26,11.74,-0.57,11.76
17.295,-1.30,10.43,-0.00,10.51
17.304,-2.56,8.18,1.24,8.66
17.314,-3.50,6.25,1.65,7.35
17.324,-3.39,4.89,0.62,5.98
17.334,-2.39,3.98,0.25,4.65
17.344,-1.38,2.65,0.30,3.01
17.354,-0.37,0.46,-0.23,0.63
17.364,0.27,-1.70,-0.24,1.74
17.374,0.42,-3.31,-0.32,3.35
17.384,0.13,-4.59,-0.34,4.61
17.393,-0.35,-5.68,-0.05,5.70
17.404,-0.85,-5.86,0.41,5.94
17.414,-1.29,-5.65,0.81,5.85
17.424,-1.72,-5.53,1.15,5.90
17.434,-2.13,-5.32,1.59,5.95
17.444,-2.58,-5.04,2.00,6.01
17.454,-3.17,-4.77,2.24,6.15
17.464,-3.81,-4.54,2.41,6.40
17.474,-4.35,-4.33,2.53,6.64
17.483,-4.55,-3.95,2.70,6.60
17.494,-4.45,-3.42,2.86,6.30
17.503,-4.08,-2.72,2.69,5.59
17.514,-3.59,-1.87,1.93,4.49
17.524,-3.03,-0.86,0.72,3.24
17.534,-2.24,0.34,-0.56,2.33
17.544,-1.17,1.57,-1.36,2.38
17.553,0.05,2.48,-1.40,2.84
17.563,1.16,2.79,-1.01,3.18
17.573,1.88,2.46,-0.66,3.17
17.583,2.08,1.53,-0.42,2.62
17.593,1.93,0.46,-0.19,2.00
17.603,1.63,-0.19,0.17,1.65
17.613,1.33,-0.44,0.40,1.46
17.623,1.01,-0.54,0.37,1.20
17.633,0.51,-0.52,0.24,0.77
17.643,-0.14,-0.47,0.05,0.49
17.653,-0.72,-0.46,-0.18,0.87
17.663,-1.06,-0.61,-0.40,1.28
17.673,-1.03,-0.96,-0.57,1.52
17.683,-0.73,-1.53,-0.63,1.81
17.693,-0.40,-2.20,-0.38,2.27
17.703,-0.10,-2.66,0.02,2.67
17.713,0.17,-2.88,0.22,2.90
17.723,0.37,-2.97,0.32,3.01
17.733,0.53,-2.93,0.11,2.98
17.743,0.74,-2.87,-0.48,3.00
17.753,0.99,-2.89,-1.27,3.31
17.763,1.21,-2.95,-1.84,3.68
17.773,1.41,-2.97,-2.08,3.89
17.783,1.49,-2.96,-2.09,3.92
17.793,1.40,-2.98,-2.04,3.87
17.803,1.28,-2.97,-1.98,3.79
17.813,1.16,-2.92,-1.89,3.67
17.823,1.06,-2.75,-1.73,3.42
17.833,0.96,-2.49,-1.45,3.04
17.843,0.92,-2.22,-1.12,2.65
17.853,0.88,-1.83,-0.78,2.18
17.863,0.75,-1.21,-0.58,1.54
17.873,0.48,-0.22,-0.43,0.69
17.883,0.08,1.21,-0.33,1.26
17.893,-0.46,3.04,-0.39,3.10
17.903,-1.15,5.17,-0.57,5.32
17.913,-2.00,7.43,-0.48,7.71
17.923,-3.15,9.83,0.33,10.33
17.933,-4.35,11.84,1.97,12.77
17.944,-4.71,12.89,3.83,14.25
17.954,-3.94,12.38,4.85,13.87
17.964,-2.08,11.09,4.15,12.02
17.973,0.32,10.13,2.49,10.43
17.983,2.12,8.38,0.54,8.66
17.993,2.66,6.18,-0.81,6.78
18.003,1.55,4.55,-1.08,4.93
18.013,-1.09,4.17,-0.89,4.40
18.023,-3.36,3.71,-0.68,5.05
18.033,-4.05,2.71,-0.50,4.90
18.043,-3.32,1.73,-0.27,3.76
18.053,-2.14,0.75,0.08,2.27
18.063,-1.04,-0.51,0.12,1.17
18.073,-0.09,-1.97,-0.03,1.98
18.082,0.69,-3.36,-0.12,3.43
18.092,1.29,-4.47,-0.10,4.66
18.103,1.70,-5.43,-0.03,5.69
18.112,1.96,-6.28,-0.09,6.58
18.123,2.10,-7.03,-0.27,7.34
18.133,2.02,-7.71,-0.51,7.99
18.143,1.71,-8.32,-0.64,8.51
18.152,1.35,-8.82,-0.94,8.97
18.163,0.85,-9.14,-1.08,9.24
18.172,0.28,-8.76,-0.85,8.80
18.182,-0.24,-6.66,-0.51,6.69
18.192,-0.59,-4.30,-0.19,4.34
18.202,-0.64,-2.32,-0.03,2.41
18.212,-0.37,-0.79,0.23,0.90
18.222,-0.05,0.81,0.86,1.18
18.232,0.11,2.01,1.22,2.35
18.242,-0.02,3.04,1.53,3.41
18.252,-0.12,4.02,1.47,4.28
18.262,-0.04,5.09,1.49,5.30
18.272,0.40,5.39,1.93,5.73
18.282,1.08,3.51,2.31,4.34
18.292,1.46,1.49,1.90,2.82
18.302,1.89,0.30,1.17,2.24
18.312,2.35,-0.69,0.95,2.63
18.322,2.79,-1.71,0.85,3.39
18.332,3.02,-2.54,0.49,3.98
18.342,2.64,-3.03,-0.15,4.02
18.352,1.74,-3.05,-1.01,3.65
18.362,0.66,-2.22,-1.36,2.68
18.372,-0.25,-1.41,-1.38,1.98
18.382,-0.66,-1.25,-1.17,1.83
18.392,-0.51,-1.14,-0.33,1.29
18.402,0.05,-0.98,0.53,1.12
18.412,0.67,-1.03,1.02,1.60
18.422,0.96,-1.34,1.29,2.09
18.432,0.92,-1.55,1.29,2.22
18.442,0.80,-1.54,0.79,1.91
18.452,0.81,-1.72,0.15,1.91
18.462,1.02,-2.04,-0.57,2.35
18.472,1.30,-2.37,-1.38,3.04
18.482,1.61,-2.55,-2.17,3.72
18.492,1.96,-2.61,-2.86,4.34
18.502,2.34,-2.51,-3.42,4.84
18.512,2.68,-2.16,-3.75,5.09
18.522,3.05,-1.55,-3.71,5.05
18.532,3.58,-0.56,-2.90,4.65
18.542,3.90,1.32,-1.49,4.38
18.552,2.82,4.49,-0.07,5.30
18.562,0.20,7.82,0.17,7.83
18.572,-2.18,9.70,-0.38,9.95
18.582,-4.05,10.38,0.79,11.17
18.593,-5.44,10.79,3.17,12.50
18.603,-6.41,10.88,4.44,13.38
18.612,-6.64,9.26,2.56,11.68
18.622,-3.92,5.87,0.91,7.12
18.632,-1.09,4.52,0.83,4.72
18.642,0.14,3.89,0.20,3.90
18.652,0.97,2.66,-1.22,3.09
18.662,1.74,1.36,-2.55,3.37
18.672,2.39,-0.04,-3.09,3.91
18.682,2.56,-1.09,-2.07,3.46
18.692,2.45,-1.26,-0.30,2.77
18.702,1.85,-1.40,0.67,2.42
18.712,1.10,-2.06,0.94,2.52
18.722,0.50,-2.52,1.04,2.77
18.732,0.04,-2.77,1.06,2.97
18.742,-0.40,-3.17,1.00,3.34
18.752,-0.97,-3.79,0.94,4.02
18.762,-1.73,-4.47,0.91,4.88
18.772,-2.74,-5.23,0.87,5.96
18.782,-3.78,-5.89,0.81,7.05
18.792,-4.57,-6.30,0.65,7.81
18.802,-4.78,-6.31,0.37,7.93
18.812,-4.11,-5.98,0.11,7.26
18.822,-3.05,-5.36,0.06,6.17
18.832,-1.99,-4.30,0.15,4.74
18.842,-1.21,-3.20,0.38,3.44
18.852,-0.91,-2.01,0.46,2.26
18.861,-1.00,-0.68,0.26,1.24
18.871,-1.02,0.78,-0.16,1.29
18.881,-0.58,2.36,-0.52,2.48
18.892,0.25,3.65,-0.45,3.69
18.901,1.18,4.11,0.23,4.28
18.911,1.88,3.09,1.19,3.80
18.921,2.12,1.25,1.51,2.88
18.931,2.07,-0.27,1.39,2.51
18.941,1.83,-1.31,0.94,2.44
18.951,1.42,-1.83,0.36,2.34
18.961,0.97,-2.02,-0.17,2.24
18.971,0.57,-2.13,-0.61,2.29
18.981,0.26,-2.22,-0.87,2.40
18.991,-0.02,-2.23,-0.94,2.42
19.001,-0.33,-2.30,-0.84,2.48
19.011,-0.57,-2.37,-0.65,2.52
19.021,-0.72,-2.44,-0.30,2.56
19.031,-0.79,-2.37,0.08,2.50
19.041,-0.82,-2.14,0.29,2.31
19.051,-0.80,-1.80,0.24,1.98
19.061,-0.69,-1.52,-0.12,1.68
19.071,-0.50,-1.46,-0.63,1.67
19.081,-0.24,-1.55,-1.05,1.89
19.091,0.11,-1.63,-1.38,2.13
19.101,0.50,-1.66,-1.76,2.47
19.111,0.91,-1.60,-2.32,2.97
19.121,1.23,-1.35,-2.80,3.34
19.131,1.30,-0.99,-2.95,3.37
19.141,1.16,-0.51,-2.73,3.01
19.151,1.05,0.09,-2.49,2.70
19.161,1.01,0.64,-2.39,2.67
19.171,0.89,1.24,-2.17,2.65
19.181,0.55,2.14,-1.73,2.80
19.191,-0.05,3.30,-1.13,3.49
19.201,-0.95,4.65,-0.51,4.77
19.211,-2.13,6.08,0.10,6.45
19.221,-3.55,7.44,0.96,8.30
19.231,-4.82,8.57,2.54,10.15
19.241,-5.45,9.54,3.85,11.64
19.251,-4.85,9.95,3.87,11.72
19.261,-2.63,9.02,3.42,10.00
19.271,-0.50,7.31,2.34,7.69
19.281,0.34,5.46,0.73,5.52
19.291,-0.01,3.83,-0.44,3.85
19.301,-1.55,3.09,-0.41,3.48
19.311,-3.36,3.00,-0.42,4.52
19.321,-4.26,2.75,-0.71,5.12
19.331,-4.04,1.98,-0.73,4.56
19.341,-2.93,0.94,-0.54,3.12
19.351,-1.59,-0.24,-0.28,1.64
19.361,-0.44,-1.57,-0.12,1.64
19.371,0.42,-2.82,-0.07,2.85
19.381,1.19,-3.62,0.00,3.81
19.391,1.77,-4.15,0.10,4.51
19.401,2.11,-4.52,0.15,5.00
19.410,2.28,-4.92,0.16,5.42
19.420,2.29,-5.48,0.22,5.94
19.431,2.17,-6.04,0.35,6.43
19.440,2.11,-6.49,0.41,6.84
19.451,2.11,-6.90,0.36,7.23
19.461,2.13,-7.13,0.47,7.46
19.471,1.81,-6.67,1.11,7.00
19.480,0.98,-4.77,1.42,5.07
19.490,0.06,-1.86,1.04,2.13
19.501,-0.30,0.80,0.59,1.04
19.510,-0.32,3.02,0.33,3.05
19.520,-0.55,4.19,0.04,4.23
19.530,-0.94,4.31,-0.30,4.42
19.540,-0.98,3.96,-0.33,4.09
19.550,-0.45,3.30,-0.06,3.33
19.560,0.33,2.62,0.57,2.70
19.570,0.77,2.01,1.34,2.54
19.580,0.52,0.90,1.95,2.21
19.590,0.10,-0.32,2.31,2.33
19.600,0.11,-1.31,2.21,2.57
19.610,0.57,-1.95,1.70,2.65
19.620,1.12,-2.62,0.92,2.99
19.631,1.46,-3.30,0.14,3.61
19.640,1.35,-3.87,-0.62,4.15
19.650,0.93,-4.08,-1.31,4.39
19.660,0.51,-3.71,-1.77,4.14
19.670,0.10,-2.81,-1.57,3.22
19.680,0.02,-1.93,-1.02,2.18
19.690,0.40,-1.45,-0.38,1.56
19.700,0.82,-1.23,0.21,1.49
19.710,1.06,-1.16,0.72,1.73
19.720,1.28,-1.46,1.29,2.33
19.730,1.49,-1.85,1.72,2.93
19.740,1.66,-1.91,1.62,3.00
19.750,1.66,-1.49,0.84,2.38
19.760,1.49,-1.30,-0.12,1.99
19.770,1.53,-1.61,-1.00,2.43
19.780,1.61,-1.97,-1.81,3.12
19.790,1.64,-2.11,-2.60,3.73
19.800,1.67,-1.99,-3.26,4.17
19.810,1.74,-1.65,-3.75,4.45
19.820,1.81,-1.13,-4.07,4.59
19.830,1.94,-0.28,-3.91,4.37
19.840,2.42,1.21,-2.71,3.83
19.850,3.32,3.38,-0.75,4.79
19.860,3.56,6.11,1.14,7.16
19.870,1.99,9.10,1.92,9.51
19.880,-0.42,11.03,1.66,11.16
19.891,-3.27,11.24,2.40,11.95
19.901,-5.10,11.78,3.05,13.20
19.911,-6.93,10.73,2.90,13.10
19.920,-7.54,7.79,1.61,10.96
19.930,-4.79,4.27,0.15,6.42
19.940,-1.57,2.78,0.22,3.20
19.950,0.20,1.88,-0.05,1.89
19.960,1.54,0.46,-1.25,2.03
19.970,2.49,-1.37,-2.60,3.85
19.980,2.70,-3.41,-2.72,5.13
19.990,2.39,-4.93,-1.79,5.76
20.000,2.04,-5.67,-0.96,6.10
20.010,1.24,-5.39,-0.37,5.54
20.020,0.20,-5.42,-0.13,5.42
20.030,-0.60,-5.48,0.17,5.51
20.040,-1.19,-5.29,0.55,5.45
20.050,-1.82,-4.95,0.93,5.35
20.060,-2.55,-4.50,1.39,5.36
20.070,-3.41,-4.01,2.03,5.64
20.079,-4.26,-3.40,2.52,6.01
20.089,-4.78,-2.70,2.44,6.01
20.099,-4.66,-1.94,1.71,5.33
20.110,-3.76,-1.39,1.06,4.14
20.119,-2.41,-1.40,0.93,2.94
20.130,-1.32,-1.71,1.02,2.39
20.139,-0.79,-1.77,1.10,2.23
20.150,-0.69,-1.41,0.84,1.78
20.159,-0.83,-0.59,0.20,1.04
20.169,-0.75,0.34,-0.47,0.95
20.179,-0.34,1.03,-0.81,1.36
20.189,0.28,1.39,-0.63,1.55
20.199,0.96,1.29,-0.07,1.61
20.210,1.58,0.90,0.52,1.89
20.219,2.07,0.27,0.92,2.28
20.229,2.35,-0.44,1.02,2.59
20.239,2.39,-1.00,0.82,2.72
20.250,2.16,-1.37,0.40,2.59
20.259,1.72,-1.53,-0.00,2.30
20.269,1.22,-1.51,-0.34,1.98
20.279,0.73,-1.40,-0.51,1.66
20.289,0.26,-1.25,-0.37,1.33
20.299,-0.20,-1.07,-0.23,1.11
20.309,-0.64,-0.81,-0.08,1.04
20.319,-0.96,-0.60,0.19,1.15
20.329,-1.07,-0.49,0.26,1.21
20.339,-0.99,-0.50,0.14,1.12
20.349,-0.72,-0.65,-0.11,0.98
20.359,-0.33,-0.98,-0.49,1.15
20.369,0.20,-1.41,-1.00,1.74
20.379,0.75,-1.67,-1.52,2.38
20.389,1.25,-1.79,-1.99,2.96
20.399,1.64,-1.89,-2.35,3.43
20.409,1.83,-1.96,-2.48,3.65
20.419,1.84,-2.06,-2.48,3.71
20.429,1.74,-2.18,-2.41,3.68
20.439,1.56,-2.21,-2.34,3.58
20.449,1.36,-2.09,-2.25,3.36
20.459,1.24,-1.81,-2.10,3.04
20.469,1.17,-1.33,-1.84,2.56
20.479,1.03,-0.57,-1.53,1.93
20.489,0.70,0.51,-1.16,1.44
20.499,0.04,1.94,-0.65,2.05
20.509,-1.10,3.70,0.10,3.86
20.519,-2.63,5.75,1.04,6.41
20.529,-4.25,8.40,2.41,9.72
20.539,-5.35,11.45,3.60,13.14
20.549,-4.84,14.06,3.72,15.33
20.559,-2.32,12.38,3.85,13.17
20.569,-0.64,7.87,3.50,8.63
20.579,-0.83,5.23,2.01,5.66
20.589,-2.46,4.25,0.61,4.95
20.599,-4.71,4.33,-0.41,6.41
20.609,-6.29,4.55,-1.43,7.89
20.619,-6.69,4.75,-2.48,8.57
20.629,-5.77,4.38,-2.44,7.64
20.639,-3.92,3.38,-1.44,5.37
20.649,-2.28,1.89,-0.43,2.99
20.658,-1.15,0.35,-0.04,1.20
20.669,-0.37,-0.73,-0.14,0.83
20.679,0.27,-1.62,-0.32,1.67
20.689,0.80,-2.44,-0.31,2.59
20.699,1.26,-3.26,-0.24,3.50
20.709,1.72,-4.07,-0.19,4.43
20.719,2.10,-4.84,-0.12,5.28
20.729,2.37,-5.58,0.05,6.07
20.738,2.51,-6.35,0.33,6.83
20.749,2.47,-7.04,0.50,7.47
20.759,2.35,-7.59,0.48,7.96
20.769,2.44,-7.82,0.13,8.19
20.778,2.71,-7.77,-0.23,8.23
20.789,2.69,-7.21,-0.37,7.70
20.798,2.08,-5.45,-0.52,5.86
20.809,1.28,-3.38,-0.88,3.72
20.818,0.60,-1.68,-1.32,2.22
20.829,0.19,-0.36,-1.65,1.70
20.839,-0.26,1.54,-1.43,2.11
20.848,-0.48,3.80,-1.07,3.98
20.858,-0.46,5.68,-0.51,5.72
20.868,-0.17,6.74,0.13,6.74
20.878,0.48,5.65,0.94,5.74
20.888,0.93,2.81,2.25,3.72
20.898,0.85,0.42,3.25,3.39
20.908,0.99,-1.22,2.69,3.12
20.918,1.25,-2.05,1.90,3.06
20.928,1.36,-2.57,1.60,3.32
20.938,1.41,-3.01,1.26,3.55
20.948,1.41,-3.09,0.95,3.53
20.958,1.21,-2.67,0.55,2.99
20.968,0.84,-1.99,-0.19,2.16
20.978,0.46,-1.51,-0.76,1.76
20.988,0.28,-1.31,-0.76,1.54
20.998,0.27,-1.17,-0.33,1.24
21.008,0.38,-1.03,0.25,1.13
21.018,0.52,-0.99,0.74,1.34
21.028,0.70,-1.18,0.92,1.66
21.038,0.93,-1.60,0.92,2.07
21.048,1.07,-1.97,0.94,2.43
21.058,1.07,-1.98,0.74,2.37
21.068,1.10,-1.93,0.30,2.24
21.078,1.25,-2.01,-0.26,2.38
21.088,1.40,-2.11,-0.95,2.70
21.098,1.55,-2.30,-1.71,3.26
21.108,1.70,-2.50,-2.39,3.86
21.118,1.83,-2.59,-2.91,4.31
21.128,1.92,-2.42,-3.35,4.56
21.138,1.88,-1.87,-3.59,4.47
21.148,1.79,-0.97,-3.65,4.18
21.158,1.80,0.43,-3.08,3.59
21.168,2.24,2.39,-1.59,3.65
21.178,2.98,4.75,0.20,5.61
21.188,2.44,7.76,1.68,8.30
21.198,0.61,10.97,1.19,11.05
21.208,-1.92,12.54,0.87,12.72
21.219,-4.54,12.35,2.00,13.31
21.229,-6.24,11.29,2.81,13.20
21.238,-7.36,8.99,1.99,11.79
21.248,-6.00,6.44,-0.07,8.80
21.258,-2.31,4.24,-0.16,4.83
21.268,-0.21,3.44,0.35,3.47
21.278,0.60,2.21,-0.32,2.31
21.288,1.38,0.69,-1.83,2.39
21.298,1.83,-1.22,-2.77,3.54
21.308,1.53,-3.12,-2.07,4.04
21.317,1.18,-4.09,-1.07,4.39
21.328,0.66,-3.49,-0.29,3.57
21.338,0.07,-3.00,0.06,3.00
21.348,-0.32,-3.03,0.25,3.05
21.358,-0.51,-3.08,0.60,3.18
21.368,-0.65,-3.24,0.97,3.45
21.378,-1.01,-3.62,1.37,4.00
21.388,-1.60,-4.25,1.82,4.90
21.398,-2.31,-4.92,2.22,5.87
21.408,-3.07,-5.32,2.32,6.56
21.418,-3.65,-5.22,1.77,6.61
21.428,-3.92,-4.73,0.82,6.20
21.437,-3.61,-4.05,0.09,5.42
21.448,-2.80,-3.22,0.06,4.27
21.457,-2.04,-2.34,0.42,3.13
21.467,-1.50,-1.50,0.63,2.21
21.477,-1.23,-0.71,0.44,1.49
21.487,-1.07,0.15,-0.08,1.08
21.497,-0.68,1.15,-0.49,1.42
21.508,-0.01,2.03,-0.52,2.10
21.517,0.73,2.43,-0.12,2.54
21.527,1.42,2.27,0.58,2.74
21.537,2.02,1.67,1.12,2.85
21.547,2.41,0.65,1.06,2.71
21.557,2.52,-0.45,0.49,2.61
21.567,2.31,-1.45,-0.05,2.73
21.577,1.84,-2.17,-0.41,2.87
21.587,1.23,-2.70,-0.66,3.04
21.597,0.74,-3.08,-0.84,3.28
21.607,0.39,-3.29,-0.79,3.41
21.617,0.08,-3.29,-0.65,3.35
21.627,-0.26,-3.16,-0.48,3.20
21.637,-0.63,-3.08,-0.06,3.14
21.647,-0.94,-3.01,0.33,3.17
21.657,-1.14,-2.81,0.57,3.09
21.667,-1.21,-2.42,0.72,2.80
21.677,-1.10,-1.92,0.60,2.30
21.687,-0.77,-1.50,0.11,1.69
21.697,-0.35,-1.28,-0.49,1.42
21.707,0.17,-1.19,-1.03,1.59
21.717,0.74,-1.13,-1.54,2.04
21.727,1.21,-1.00,-2.10,2.62
21.737,1.49,-0.93,-2.70,3.22
21.747,1.54,-0.97,-2.98,3.49
21.757,1.49,-0.90,-2.73,3.24
21.767,1.46,-0.63,-2.23,2.74
21.777,1.45,-0.26,-1.73,2.27
21.787,1.38,0.20,-1.34,1.93
21.797,1.20,0.89,-1.18,1.90
21.807,0.92,1.96,-1.09,2.42
21.817,0.47,3.21,-0.93,3.37
21.827,-0.33,4.81,-0.61,4.86
21.837,-1.58,6.67,0.30,6.86
21.847,-3.29,8.66,2.08,9.49
21.857,-4.98,10.47,4.41,12.40
21.867,-5.67,12.06,4.97,14.22
21.877,-4.27,12.47,4.22,13.84
21.887,-1.29,10.31,3.43,10.95
21.897,0.55,7.91,2.11,8.20
21.907,0.84,5.71,0.47,5.79
21.917,-0.31,4.07,-0.58,4.12
21.927,-2.43,3.64,-0.79,4.45
21.937,-4.17,3.78,-1.04,5.73
21.947,-4.83,3.30,-1.44,6.03
21.957,-4.26,2.11,-1.60,5.01
21.967,-2.91,1.04,-1.37,3.38
21.976,-1.57,-0.09,-1.01,1.87
21.987,-0.53,-1.35,-0.76,1.63
21.997,0.29,-2.46,-0.61,2.55
22.007,1.02,-3.32,-0.52,3.51
22.017,1.67,-4.10,-0.52,4.46
22.027,2.15,-4.81,-0.47,5.29
22.036,2.46,-5.45,-0.47,6.00
22.047,2.70,-6.05,-0.60,6.65
22.057,2.80,-6.69,-0.76,7.30
22.067,2.74,-7.42,-0.85,7.95
22.077,2.58,-8.09,-0.77,8.52
22.086,2.26,-8.45,-0.37,8.76
22.097,1.75,-8.20,0.41,8.39
22.107,1.22,-6.94,0.88,7.10
22.117,0.68,-4.76,0.65,4.86
22.127,-0.19,-2.38,-0.05,2.38
22.137,-1.42,-0.04,-0.61,1.54
22.147,-2.36,2.57,-1.14,3.67
22.156,-2.69,5.57,-1.46,6.35
22.166,-2.30,8.00,-1.58,8.47
22.176,-1.57,8.95,-0.98,9.14
22.186,-0.87,7.19,0.47,7.26
22.196,-0.15,3.51,1.87,3.98
22.206,-0.06,1.07,2.80,2.99
22.216,-0.40,-0.61,3.24,3.32
22.226,-0.38,-1.96,2.68,3.34
22.236,0.04,-2.77,1.65,3.22
22.246,0.53,-3.40,0.83,3.54
22.256,0.91,-3.89,0.29,4.01
22.266,1.14,-4.24,-0.14,4.39
22.276,1.14,-4.30,-0.68,4.50
22.286,0.99,-4.14,-1.25,4.44
22.296,0.78,-3.88,-1.39,4.19
22.306,0.55,-3.63,-1.16,3.85
22.316,0.51,-3.30,-0.70,3.41
22.326,0.67,-2.94,-0.03,3.01
22.336,0.81,-2.70,0.72,2.90
22.346,0.91,-2.51,1.24,2.95
22.356,0.95,-2.44,1.55,3.04
22.366,1.02,-2.40,1.71,3.12
22.376,1.08,-2.13,1.55,2.85
22.386,0.99,-1.71,1.05,2.24
22.396,0.88,-1.61,0.36,1.87
22.406,0.90,-1.66,-0.41,1.93
22.416,1.17,-1.67,-1.25,2.39
22.426,1.59,-1.68,-2.01,3.06
22.436,1.95,-1.60,-2.56,3.60
22.446,2.10,-1.24,-2.84,3.74
22.456,2.11,-0.52,-2.96,3.67
22.466,2.07,0.58,-2.92,3.63
22.476,1.97,1.93,-2.56,3.76
22.486,2.02,3.64,-1.52,4.43
22.496,2.45,5.68,-0.00,6.18
22.506,2.70,7.93,1.86,8.59
22.516,1.72,10.56,2.60,11.01
22.526,-0.40,11.92,1.74,12.06
22.537,-2.89,11.86,0.86,12.24
22.547,-4.94,11.28,1.27,12.38
22.557,-6.26,9.79,1.43,11.71
22.566,-5.80,8.04,0.36,9.92
22.576,-2.46,5.69,-0.21,6.20
22.586,0.29,4.41,-0.02,4.42
22.596,1.28,2.61,-0.39,2.93
22.606,1.81,0.42,-1.01,2.12
22.616,2.22,-1.55,-1.75,3.22
22.626,2.07,-3.43,-1.62,4.32
22.636,1.40,-4.57,-0.85,4.85
22.646,0.33,-4.06,-0.17,4.08
22.655,-0.68,-3.91,0.17,3.97
22.666,-1.25,-3.95,0.34,4.15
22.676,-1.50,-3.57,0.51,3.90
22.686,-1.54,-3.30,0.63,3.69
22.696,-1.61,-3.56,0.69,3.97
22.706,-1.84,-4.27,0.86,4.73
22.716,-2.24,-5.20,1.16,5.78
22.726,-2.68,-5.92,1.31,6.63
22.736,-3.08,-6.14,1.14,6.97
22.746,-3.22,-5.67,0.55,6.55
22.755,-2.83,-4.66,-0.15,5.46
22.766,-1.97,-3.55,-0.57,4.09
22.776,-1.01,-2.54,-0.81,2.85
22.785,-0.25,-1.50,-0.88,1.76
22.796,0.16,-0.22,-0.92,0.96
22.806,0.30,1.12,-1.01,1.54
22.815,0.52,2.19,-1.23,2.57
22.825,0.99,3.22,-1.19,3.57
22.835,1.61,3.82,-0.37,4.16
22.845,2.25,3.11,0.67,3.90
22.855,2.64,1.46,1.25,3.27
22.865,2.72,-0.06,1.27,3.00
22.875,2.63,-1.21,0.79,3.00
22.885,2.26,-1.98,0.19,3.01
22.895,1.60,-2.37,-0.35,2.88
22.905,0.77,-2.57,-0.78,2.80
22.915,0.03,-2.59,-1.15,2.83
22.925,-0.44,-2.40,-1.45,2.84
22.935,-0.64,-2.14,-1.48,2.68
22.945,-0.69,-2.10,-1.04,2.45
22.955,-0.74,-2.17,-0.39,2.32
22.965,-0.92,-2.31,0.34,2.51
22.975,-1.13,-2.34,0.97,2.78
22.985,-1.25,-2.14,1.39,2.84
22.995,-1.23,-1.76,1.54,2.64
23.005,-1.11,-1.30,1.26,2.13
23.015,-0.97,-0.91,0.60,1.46
23.025,-0.72,-0.58,-0.35,0.99
23.035,-0.33,-0.56,-1.29,1.45
23.045,0.20,-0.81,-1.82,2.00
23.055,0.74,-1.03,-1.95,2.33
23.065,1.21,-1.13,-1.72,2.39
23.075,1.61,-1.05,-1.58,2.49
23.085,1.69,-0.82,-1.56,2.44
23.095,1.37,-0.38,-1.42,2.01
23.105,0.89,-0.05,-1.21,1.50
23.115,0.54,-0.16,-1.09,1.22
23.125,0.44,-0.46,-1.05,1.23
23.135,0.37,-0.73,-0.87,1.19
23.145,0.14,-0.79,-0.55,0.97
23.155,-0.22,-0.50,-0.22,0.59
23.165,-0.73,0.20,0.01,0.76
23.175,-1.41,1.25,-0.01,1.88
23.185,-2.23,2.46,-0.23,3.33
23.195,-3.26,3.88,-0.58,5.10
23.205,-4.39,5.33,-0.82,6.95
23.215,-5.08,6.75,-0.03,8.45
23.225,-4.67,8.14,0.96,9.43
23.235,-2.57,8.47,1.04,8.91
23.245,-0.13,7.43,0.90,7.49
23.255,1.06,5.66,0.59,5.78
23.265,0.78,3.87,0.17,3.96
23.275,-0.85,3.21,-0.18,3.33
23.285,-3.31,3.93,-0.44,5.16
23.295,-5.20,5.02,-0.77,7.27
23.305,-5.92,5.85,-0.94,8.38
23.315,-5.58,5.89,-0.84,8.16
23.324,-4.62,4.63,-0.46,6.56
23.335,-3.62,2.77,-0.06,4.55
23.345,-2.79,1.24,0.33,3.07
23.355,-2.05,0.35,0.40,2.12
23.364,-1.45,-0.15,0.34,1.50
23.375,-1.00,-0.70,0.15,1.23
23.385,-0.55,-1.43,-0.02,1.53
23.395,-0.06,-2.36,-0.14,2.36
23.405,0.46,-3.42,-0.22,3.45
23.415,0.95,-4.46,-0.31,4.58
23.424,1.41,-5.38,-0.33,5.57
23.434,1.84,-6.21,-0.24,6.48
23.444,2.23,-7.00,-0.13,7.34
23.454,2.61,-7.80,-0.04,8.22
23.464,3.10,-8.48,-0.23,9.03
23.474,3.69,-8.77,-0.78,9.55
23.485,4.10,-8.72,-1.34,9.73
23.494,4.19,-8.33,-1.78,9.49
23.504,3.90,-7.30,-1.87,8.49
23.514,3.24,-5.53,-1.34,6.55
23.524,2.43,-3.37,-0.68,4.21
23.534,1.71,-1.12,-0.40,2.08
23.544,1.04,1.51,-0.38,1.87
23.554,0.56,4.78,-0.39,4.83
23.564,0.23,8.08,-0.47,8.10
23.574,-0.13,9.95,-0.01,9.95
23.584,-0.74,8.70,1.10,8.80
23.594,-1.23,5.24,1.84,5.69
23.604,-1.02,2.00,3.16,3.87
23.614,-0.58,0.32,3.36,3.43
23.624,-0.32,-0.43,2.47,2.53
23.634,-0.40,-0.91,1.71,1.97
23.644,-0.53,-1.23,1.15,1.76
23.654,-0.26,-1.41,0.64,1.57
23.664,0.24,-1.65,0.44,1.73
23.674,0.69,-1.48,0.50,1.71
23.684,0.98,-1.14,0.32,1.53
23.694,1.23,-1.29,-0.28,1.80
23.704,1.43,-1.69,-0.78,2.35
23.714,1.38,-1.60,-0.82,2.27
23.724,1.21,-0.93,-0.43,1.58
23.734,1.14,-0.32,-0.04,1.18
23.744,1.25,-0.04,0.30,1.28
23.754,1.46,0.09,0.73,1.63
23.764,1.64,0.20,1.09,1.98
23.774,1.61,0.09,1.11,1.95
23.784,1.36,-0.24,0.87,1.64
23.794,1.22,-0.82,0.50,1.55
23.804,1.25,-1.41,0.19,1.90
23.814,1.36,-1.96,-0.01,2.39
23.824,1.50,-2.38,-0.30,2.83
23.834,1.62,-2.69,-0.66,3.21
23.844,1.58,-2.88,-0.99,3.44
23.854,1.33,-2.98,-1.25,3.49
23.864,1.03,-2.94,-1.47,3.44
23.874,0.86,-2.82,-1.74,3.42
23.884,0.90,-2.62,-2.05,3.44
23.894,1.05,-2.27,-2.26,3.37
23.904,1.37,-1.69,-1.90,2.89
23.914,1.98,-0.66,-0.63,2.18
23.924,2.78,0.75,0.65,2.95
23.934,2.72,2.95,1.54,4.30
23.944,1.11,5.60,1.09,5.81
23.953,-1.69,7.57,-0.30,7.76
23.964,-4.50,8.23,-0.72,9.40
23.974,-6.00,7.88,-0.02,9.91
23.984,-6.40,6.82,0.73,9.38
23.994,-6.13,5.98,0.95,8.61
24.004,-4.58,5.36,0.74,7.09
24.014,-1.61,4.12,0.88,4.51
24.024,0.26,4.39,0.78,4.47
24.033,1.16,4.53,-0.04,4.68
24.044,1.93,4.28,-1.53,4.94
24.054,2.29,3.43,-2.68,4.92
24.064,1.81,2.16,-2.34,3.67
24.073,0.59,2.02,-0.80,2.25
24.083,-0.45,2.12,0.65,2.26
24.094,-0.90,1.18,1.34,2.00
24.103,-1.02,0.25,1.73,2.03
24.113,-1.10,-0.51,1.67,2.06
24.124,-1.15,-1.47,1.27,2.26
24.133,-1.12,-2.75,0.94,3.12
24.143,-1.04,-4.03,0.81,4.24
24.153,-1.02,-5.15,0.72,5.30
24.163,-1.13,-6.10,0.63,6.23
24.173,-1.34,-6.88,0.51,7.02
24.183,-1.57,-7.37,0.34,7.55
24.193,-1.72,-7.51,0.17,7.71
24.203,-1.75,-7.22,0.18,7.43
24.213,-1.74,-6.42,0.41,6.66
24.223,-1.75,-5.08,0.68,5.41
24.233,-1.75,-3.39,0.82,3.90
24.243,-1.67,-1.80,0.69,2.55
24.253,-1.52,-0.33,0.38,1.60
24.263,-1.38,1.01,-0.06,1.71
24.273,-1.25,2.12,-0.34,2.48
24.283,-0.90,2.73,-0.36,2.90
24.293,-0.18,2.44,-0.13,2.45
24.303,0.82,0.99,0.23,1.31
24.313,1.55,-0.53,0.40,1.68
24.323,1.75,-1.80,0.38,2.54
24.333,1.56,-2.71,-0.01,3.13
24.343,1.23,-2.99,-0.58,3.28
24.353,0.98,-2.89,-1.09,3.24
24.363,0.81,-2.80,-1.43,3.25
24.373,0.65,-2.61,-1.57,3.12
24.383,0.55,-2.24,-1.56,2.78
24.393,0.56,-1.60,-1.38,2.19
24.403,0.53,-0.90,-0.87,1.36
24.413,0.38,-0.43,-0.10,0.58
24.423,0.08,-0.20,0.64,0.67
24.433,-0.31,-0.01,1.21,1.25
24.443,-0.71,0.25,1.53,1.71
24.453,-1.00,0.56,1.52,1.91
24.463,-1.17,0.83,1.23,1.89
24.473,-1.25,1.04,0.78,1.81
24.483,-1.25,1.14,0.44,1.75
24.493,-1.08,0.84,0.19,1.38
24.503,-0.76,0.39,-0.08,0.86
24.513,-0.39,0.11,-0.39,0.56
24.523,0.03,-0.10,-0.78,0.79
24.533,0.59,-0.26,-1.10,1.28
24.543,1.25,-0.32,-1.31,1.84
24.553,1.96,-0.30,-1.48,2.47
24.563,2.55,-0.27,-1.63,3.04
24.573,2.83,-0.25,-1.77,3.35
24.583,2.58,-0.14,-1.74,3.11
24.593,1.83,0.01,-1.62,2.44
24.603,1.20,-0.08,-1.28,1.75
24.613,0.91,-0.34,-0.93,1.34
24.623,0.72,-0.64,-0.71,1.20
24.633,0.51,-0.92,-0.56,1.19
24.643,0.26,-1.01,-0.33,1.09
24.652,-0.01,-0.94,-0.00,0.94
24.663,-0.20,-0.80,0.16,0.84
24.673,-0.24,-0.76,0.06,0.80
24.683,-0.19,-0.78,-0.18,0.82
24.693,-0.18,-0.61,-0.44,0.78
24.702,-0.24,-0.16,-0.73,0.79
24.712,-0.44,0.64,-0.94,1.22
24.722,-0.95,1.77,-1.03,2.25
24.732,-1.78,3.18,-1.10,3.81
24.743,-2.69,4.88,-0.73,5.62
24.752,-3.19,6.92,-0.04,7.62
24.763,-2.32,9.31,0.12,9.60
24.772,0.24,10.30,0.54,10.31
24.783,2.30,8.22,1.68,8.69
24.792,1.98,5.37,2.15,6.12
24.802,0.18,3.79,1.46,4.07
24.812,-1.98,3.68,0.70,4.24
24.822,-3.59,4.41,0.02,5.69
24.832,-4.24,5.16,-0.58,6.71
24.842,-4.07,5.76,-1.19,7.15
24.852,-3.74,5.84,-1.65,7.13
24.862,-3.61,4.89,-1.43,6.25
24.872,-3.57,3.58,-0.85,5.13
24.882,-3.60,2.35,-0.24,4.31
24.892,-3.28,1.33,0.13,3.54
24.902,-2.52,0.64,0.25,2.61
24.912,-1.57,-0.01,0.27,1.59
24.922,-0.63,-0.79,0.11,1.02
24.932,0.28,-1.68,-0.13,1.70
24.942,1.12,-2.58,-0.40,2.84
24.952,1.93,-3.52,-0.59,4.06
24.962,2.74,-4.42,-0.73,5.25
24.972,3.46,-5.14,-0.89,6.26
24.982,4.06,-5.80,-1.11,7.17
24.992,4.48,-6.50,-1.19,7.99
25.002,4.67,-7.17,-1.13,8.63
25.012,4.55,-7.64,-1.03,8.95
25.022,4.21,-7.75,-1.01,8.88
25.032,3.79,-7.46,-1.18,8.45
25.042,3.26,-6.70,-1.33,7.57
25.052,2.64,-5.50,-1.31,6.24
25.062,1.80,-4.08,-1.23,4.62
25.072,0.74,-2.51,-1.03,2.81
25.082,-0.43,-0.72,-0.83,1.18
25.092,-1.95,1.48,-1.01,2.65
25.102,-3.86,4.68,-1.50,6.25
25.112,-4.97,7.74,-0.91,9.24
25.122,-4.32,8.61,1.06,9.69
25.132,-2.52,5.98,3.13,7.20
25.142,-0.82,1.85,4.03,4.51
25.152,-0.25,-0.36,4.28,4.30
25.162,-0.12,-1.14,3.94,4.10
25.172,-0.44,-1.34,3.19,3.49
25.182,-0.95,-1.42,2.29,2.86
25.192,-1.26,-1.44,1.45,2.40
25.202,-1.10,-1.57,0.91,2.12
25.212,-0.51,-1.78,0.65,1.96
25.222,0.26,-2.20,0.57,2.29
25.232,1.00,-2.91,0.51,3.12
25.242,1.54,-3.67,0.16,3.99
25.252,1.86,-4.11,-0.48,4.54
25.262,1.82,-3.87,-1.02,4.40
25.272,1.47,-3.02,-1.25,3.58
25.282,1.23,-1.94,-1.21,2.59
25.292,1.21,-0.84,-1.13,1.85
25.302,1.35,0.17,-0.82,1.59
25.312,1.62,0.91,-0.26,1.88
25.322,1.93,1.31,0.40,2.36
25.332,2.09,1.30,0.92,2.62
25.342,2.04,1.04,1.11,2.55
25.352,1.77,0.81,0.81,2.11
25.362,1.51,0.51,0.21,1.61
25.372,1.36,-0.03,-0.37,1.41
25.382,1.29,-0.68,-0.86,1.70
25.392,1.22,-1.19,-1.40,2.21
25.402,1.10,-1.50,-1.97,2.71
25.411,1.02,-1.66,-2.45,3.13
25.421,1.10,-1.86,-2.72,3.48
25.432,1.29,-2.00,-2.82,3.69
25.442,1.53,-1.94,-2.65,3.62
25.451,1.92,-1.57,-1.81,3.07
25.461,2.81,-0.98,-0.49,3.01
25.471,3.70,0.05,0.76,3.78
25.481,3.08,2.83,1.48,4.44
25.491,0.92,5.91,0.59,6.01
25.501,-1.89,7.35,-0.83,7.64
25.511,-3.47,7.53,-0.88,8.33
25.521,-4.07,7.20,0.46,8.28
25.531,-4.39,6.42,1.80,7.98
25.542,-4.18,6.17,2.09,7.74
25.551,-3.14,5.08,1.65,6.20
25.561,-0.92,3.75,1.35,4.09
25.571,0.30,4.21,0.93,4.32
25.581,0.65,4.21,-0.42,4.28
25.591,1.02,3.88,-2.21,4.58
25.601,1.50,2.99,-3.38,4.75
25.611,1.77,1.51,-2.94,3.75
25.621,1.50,0.47,-1.17,1.96
25.631,1.00,0.27,0.53,1.17
25.641,0.60,-0.06,1.30,1.44
25.651,0.23,-0.57,1.71,1.82
25.661,-0.12,-1.03,1.61,1.91
25.671,-0.23,-1.66,0.92,1.91
25.681,-0.26,-2.62,0.32,2.65
25.691,-0.25,-3.71,0.01,3.72
25.701,-0.17,-4.60,-0.35,4.62
25.711,-0.22,-5.32,-0.57,5.35
25.721,-0.79,-6.13,-0.40,6.19
25.731,-1.48,-6.65,-0.22,6.81
25.741,-2.13,-6.66,-0.00,6.99
25.751,-2.54,-6.13,0.28,6.64
25.761,-2.81,-5.03,0.73,5.81
25.771,-2.98,-3.67,1.17,4.87
25.781,-2.95,-2.06,1.28,3.82
25.791,-2.69,-0.27,0.92,2.86
25.801,-2.32,1.30,0.39,2.69
25.811,-1.77,2.49,-0.04,3.05
25.821,-0.90,3.07,0.14,3.20
25.831,0.13,2.61,0.78,2.73
25.841,0.92,1.33,1.32,2.09
25.851,1.30,-0.02,1.57,2.03
25.861,1.14,-1.30,1.45,2.26
25.871,0.72,-2.43,0.84,2.67
25.881,0.42,-3.11,0.01,3.14
25.891,0.34,-2.96,-0.88,3.11
25.901,0.28,-2.37,-1.44,2.79
25.911,0.11,-2.10,-1.40,2.53
25.921,-0.07,-2.20,-1.08,2.45
25.931,-0.11,-2.10,-1.05,2.35
25.941,-0.13,-1.56,-1.16,1.95
25.951,-0.31,-1.32,-0.27,1.39
25.961,-0.52,-1.03,0.80,1.40
25.971,-0.79,-0.61,1.51,1.81
25.981,-1.02,-0.22,2.07,2.32
25.991,-1.09,0.18,2.19,2.45
26.001,-1.04,0.49,1.78,2.12
26.011,-0.93,0.60,1.17,1.61
26.021,-0.83,0.48,0.53,1.10
26.031,-0.84,0.16,-0.06,0.86
26.041,-0.90,-0.12,-0.46,1.02
26.051,-0.91,-0.33,-0.69,1.19
26.061,-0.79,-0.60,-0.77,1.26
26.070,-0.52,-0.95,-0.77,1.33
26.081,-0.16,-1.30,-0.70,1.48
26.090,0.23,-1.67,-0.55,1.77
26.101,0.52,-1.96,-0.42,2.06
26.110,0.65,-2.16,-0.25,2.27
26.120,0.61,-2.09,-0.20,2.19
26.130,0.33,-1.59,-0.38,1.67
26.140,-0.09,-0.81,-0.66,1.05
26.150,-0.49,-0.06,-0.65,0.82
26.160,-0.74,0.52,-0.40,0.99
26.170,-0.82,0.75,0.04,1.11
26.180,-0.73,0.76,0.38,1.12
26.190,-0.58,0.67,0.58,1.06
26.200,-0.40,0.63,0.54,0.92
26.210,-0.26,0.61,0.37,0.76
26.220,-0.17,0.61,0.07,0.64
26.230,-0.17,0.73,-0.53,0.92
26.240,-0.28,0.84,-1.15,1.45
26.250,-0.43,0.77,-1.70,1.91
26.260,-0.50,0.43,-1.91,2.03
26.270,-0.52,-0.12,-1.77,1.85
26.280,-0.52,-0.28,-1.68,1.78
26.290,-0.48,-0.22,-1.63,1.71
26.300,-0.38,-0.11,-1.40,1.45
26.310,-0.28,-0.01,-1.16,1.20
26.320,-0.25,0.03,-0.94,0.98
26.330,-0.40,0.10,-0.73,0.84
26.340,-0.77,0.19,-0.80,1.13
26.350,-1.28,0.10,-0.03,1.29
26.360,-1.77,0.31,0.54,1.88
26.370,-2.03,-0.01,0.74,2.16
26.380,-1.30,-0.59,-0.59,1.54
26.390,-0.52,0.70,-0.52,1.01
26.400,0.56,2.03,-0.20,2.12
26.410,1.08,1.72,-0.21,2.04
26.420,0.72,0.71,-0.19,1.03
26.430,-0.83,0.10,-0.85,1.19
26.440,-2.10,0.28,-1.61,2.66
26.450,-2.32,0.65,-1.62,2.90
26.460,-2.26,1.42,-1.29,2.96
26.470,-2.16,2.09,-0.96,3.16
26.480,-1.94,2.16,-1.24,3.16
26.490,-1.98,2.59,-0.68,3.33
26.500,-2.06,3.27,-0.47,3.89
26.510,-2.14,3.66,-0.75,4.31
26.520,-2.24,4.06,-0.52,4.67
26.530,-2.36,4.63,-0.22,5.20
26.540,-2.26,5.17,0.06,5.64
26.550,-1.68,5.22,0.44,5.51
26.560,-1.08,4.71,0.41,4.85
26.570,-1.03,4.04,0.57,4.21
26.580,-1.56,3.82,0.71,4.18
26.590,-2.41,3.96,0.82,4.71
26.600,-2.96,3.79,0.46,4.83
26.610,-2.76,2.81,0.12,3.94
26.620,-2.12,1.13,-0.42,2.44
26.630,-1.64,-0.08,-0.44,1.70
26.640,-1.06,-1.06,-0.41,1.55
26.650,-0.63,-1.81,-0.43,1.97
26.660,-0.20,-2.45,-0.54,2.52
26.669,0.38,-3.01,-0.69,3.11
26.680,1.00,-3.44,-0.77,3.67
26.689,1.68,-3.87,-0.97,4.33
26.700,2.38,-4.41,-1.09,5.13
26.709,2.89,-5.08,-0.66,5.88
26.720,3.20,-5.39,-0.77,6.32
26.729,3.38,-5.32,-1.07,6.40
26.739,3.62,-5.03,-1.19,6.31
26.749,3.90,-4.65,-1.30,6.20
26.760,3.98,-4.16,-1.09,5.85
26.769,3.86,-3.53,-0.79,5.29
26.779,3.75,-2.78,-0.46,4.69
26.789,3.61,-1.84,-0.35,4.06
26.799,3.17,-0.71,-0.22,3.25
26.809,2.77,0.53,0.13,2.82
26.819,2.39,1.71,0.65,3.01
26.829,1.51,2.65,0.55,3.10
26.839,0.96,2.87,1.22,3.26
26.849,0.60,2.31,1.56,2.86
26.859,0.22,1.62,1.63,2.31
26.869,-0.17,1.05,1.86,2.14
26.879,-0.91,0.75,1.83,2.18
26.889,-1.36,0.09,1.75,2.22
26.899,-1.24,-0.87,1.70,2.27
26.909,-0.59,-1.79,1.34,2.31
26.919,-0.10,-2.03,0.99,2.26
26.929,-0.06,-1.55,1.19,1.95
26.939,-0.23,-0.93,1.33,1.64
26.949,-0.33,-0.76,1.17,1.43
26.959,-0.32,-0.91,0.85,1.28
26.969,0.35,-2.37,0.38,2.43
26.979,1.37,-4.76,-0.06,4.95
26.989,1.65,-3.81,0.83,4.24
26.999,0.81,-1.20,0.21,1.47
27.009,0.92,-1.52,0.19,1.78
27.019,1.27,-1.80,0.21,2.21
27.029,1.41,-1.29,-0.36,1.95
27.039,1.68,-0.92,-0.81,2.08
27.049,1.75,-0.81,-1.27,2.31
27.059,1.74,-1.24,0.28,2.16
27.069,1.75,-0.93,1.19,2.31
27.079,1.60,0.46,0.73,1.82
27.089,1.41,1.61,0.17,2.15
27.099,1.28,1.75,-0.42,2.21
27.109,1.10,1.10,0.03,1.56
27.119,0.93,0.74,0.87,1.47
27.129,0.73,0.74,1.31,1.67
27.139,0.38,0.76,1.48,1.70
27.149,0.03,0.68,1.46,1.61
27.159,-0.46,0.58,1.45,1.63
27.169,-0.66,0.20,1.41,1.57
27.179,-0.76,-0.19,1.08,1.33
27.189,-0.92,-0.38,0.42,1.08
27.199,-0.71,-0.36,-0.30,0.85
27.209,0.03,-0.35,-0.91,0.97
27.219,0.78,-0.40,-1.00,1.33
27.229,1.12,-0.43,-0.90,1.50
27.239,1.01,-0.64,-0.74,1.41
27.249,0.99,-1.06,-0.35,1.49
27.259,0.83,-0.49,-0.03,0.96
27.269,0.74,-0.05,-0.13,0.75
27.279,0.75,0.25,-0.46,0.91
27.289,0.67,0.40,-0.41,0.88
27.299,0.63,0.22,-0.13,0.68
27.309,0.80,0.01,-0.10,0.80
27.319,1.12,-0.19,-0.23,1.16
27.328,1.27,-1.09,-0.15,1.68
27.339,1.28,-1.69,-0.08,2.12
27.348,1.31,-1.35,0.07,1.88
27.359,1.45,-0.49,0.03,1.53
27.368,1.61,0.28,0.17,1.64
27.379,1.62,0.92,0.23,1.88
27.388,1.36,1.51,0.47,2.08
27.399,1.29,1.45,0.10,1.95
27.408,0.96,1.15,-0.63,1.63
27.418,0.29,1.65,-0.56,1.77
27.428,0.16,2.28,-0.69,2.39
27.438,0.15,3.08,-0.77,3.18
27.448,-0.68,4.57,-0.20,4.63
27.459,-1.19,5.68,0.14,5.80
27.468,-1.20,4.72,0.06,4.87
27.478,-1.46,3.11,0.71,3.51
27.488,-1.77,2.07,1.97,3.36
27.498,-2.26,2.41,2.60,4.21
27.508,-2.50,3.22,1.91,4.50
27.518,-2.75,3.65,0.87,4.66
27.528,-2.66,3.32,-0.08,4.26
27.538,-2.48,3.12,-0.12,3.99
27.548,-2.19,3.51,0.19,4.14
27.558,-1.64,3.82,-0.12,4.16
27.568,-1.13,3.53,-0.50,3.74
27.578,-0.67,2.90,-0.19,2.98
27.588,-0.02,1.58,-0.47,1.65
27.598,0.71,-0.45,-0.94,1.26
27.608,1.64,-3.73,1.36,4.29
27.618,1.77,-5.76,3.09,6.77
27.628,1.71,-4.96,3.20,6.15
27.638,0.97,-1.83,2.09,2.94
27.648,-0.10,0.62,0.20,0.66
27.658,-0.52,1.63,-0.82,1.90
27.668,-0.26,1.07,-1.40,1.78
27.678,0.08,0.81,-0.68,1.06
27.688,0.41,0.97,-0.42,1.13
27.698,0.32,0.48,-0.13,0.59
27.708,0.18,-0.30,0.97,1.03
27.718,0.18,-1.07,0.99,1.47
27.728,0.22,-1.63,0.33,1.68
27.738,0.63,-2.15,0.24,2.25
27.748,0.77,-2.36,0.87,2.63
27.758,0.75,-2.44,1.09,2.77
27.768,0.29,-2.14,0.92,2.35
27.778,-0.70,-1.35,0.84,1.74
27.788,-1.42,-0.72,-0.10,1.60
27.798,-1.54,-0.34,-0.31,1.61
27.808,-0.39,-0.38,0.61,0.82
27.818,-0.12,0.21,-0.00,0.24
27.828,-0.37,0.97,0.04,1.04
27.838,-0.27,1.18,-0.18,1.23
27.848,-0.51,2.18,-0.41,2.28
27.858,-0.53,3.10,-0.80,3.24
27.868,0.08,2.91,-0.68,2.99
27.878,0.90,1.50,-0.43,1.80
27.888,-0.40,0.20,0.15,0.48
27.898,-0.90,-0.49,0.05,1.03
27.908,-2.20,0.26,-0.78,2.35
27.918,-4.24,1.09,-1.04,4.50
27.928,-5.18,1.27,-0.38,5.35
27.938,-4.30,0.95,-1.73,4.73
27.948,-3.77,0.86,-2.45,4.58
27.958,-3.37,1.14,-2.50,4.34
27.967,-2.67,1.68,-0.87,3.28
27.978,-1.87,2.30,0.31,2.98
27.987,-0.75,2.31,1.20,2.71
27.998,-0.18,2.23,2.40,3.28
28.007,0.12,2.29,2.78,3.60
28.018,0.01,2.72,2.83,3.92
28.028,-0.36,3.14,3.26,4.54
28.038,-0.83,3.60,4.21,5.60
28.048,-1.21,3.87,4.64,6.16
28.057,-1.46,3.96,4.98,6.53
28.067,-1.61,3.76,5.88,7.16
28.077,-1.25,3.14,6.89,7.67
28.087,-0.96,2.38,7.58,8.00
28.097,-0.77,1.77,7.84,8.07
28.107,-0.54,1.80,7.79,8.02
28.117,-0.84,2.34,8.52,8.87
28.127,-1.03,2.59,8.95,9.37
28.137,-0.81,2.60,8.97,9.37
28.147,0.23,2.71,9.63,10.00
28.157,1.08,3.05,10.05,10.56
28.167,1.44,2.88,9.90,10.41
28.177,1.69,2.15,9.00,9.41
28.187,1.80,0.66,7.75,7.99
28.197,1.99,-1.03,7.07,7.41
28.207,2.38,-1.76,7.29,7.87
28.217,2.82,-1.23,7.59,8.19
28.227,3.28,0.26,7.05,7.78
28.237,3.42,1.90,5.95,7.12
28.247,3.58,3.22,4.90,6.87
28.257,3.96,4.01,3.72,6.75
28.267,4.30,4.02,2.61,6.44
28.277,4.54,3.59,1.99,6.12
28.287,4.63,3.19,1.31,5.77
28.297,4.77,2.64,0.65,5.49
28.307,4.91,1.79,0.41,5.24
28.317,5.00,0.80,-0.04,5.07
28.327,5.08,0.19,-0.30,5.09
28.337,5.39,0.13,-0.38,5.41
28.347,6.00,0.44,-0.96,6.09
28.357,6.43,1.06,-1.54,6.70
28.367,6.71,1.58,-2.12,7.21
28.377,6.88,1.79,-2.95,7.69
28.387,6.95,1.78,-3.55,8.01
28.397,6.83,1.39,-3.92,8.00
28.407,6.58,0.95,-4.26,7.90
28.417,6.27,0.68,-4.36,7.67
28.427,6.01,0.62,-4.33,7.44
28.437,5.91,0.69,-4.28,7.33
28.447,5.80,1.00,-4.27,7.27
28.457,5.62,1.27,-4.11,7.07
28.467,5.29,1.34,-3.80,6.65
28.477,4.82,1.30,-3.68,6.20
28.487,4.04,1.07,-4.03,5.81
28.497,3.21,0.69,-4.40,5.49
28.507,2.44,0.20,-4.52,5.14
28.517,1.89,-0.09,-4.68,5.05
28.527,1.31,0.10,-4.21,4.41
28.537,0.87,0.57,-3.92,4.06
28.547,0.62,0.94,-3.99,4.14
28.557,0.22,1.06,-3.67,3.83
28.566,0.00,0.79,-3.48,3.57
28.577,-0.18,0.48,-3.18,3.23
28.587,-0.18,0.12,-2.69,2.70
28.597,-0.18,-0.05,-2.15,2.16
28.607,0.00,0.13,-1.77,1.77
28.617,0.28,0.46,-1.35,1.46
28.627,0.37,0.63,-0.78,1.08
28.637,0.47,0.45,-0.81,1.04
28.647,0.39,0.21,-0.75,0.87
28.657,0.28,-0.10,-0.58,0.65
28.666,0.25,-0.35,-0.80,0.91
28.676,0.34,-0.34,-0.83,0.96
28.686,0.42,-0.22,-0.52,0.70
28.697,0.68,-0.22,-0.20,0.74
28.706,0.88,-0.46,0.22,1.02
28.716,1.02,-0.60,0.33,1.23
28.726,1.09,-0.45,0.33,1.23
28.736,1.27,-0.14,0.14,1.28
28.746,1.41,0.24,-0.03,1.43
28.756,1.39,0.55,-0.24,1.52
28.766,1.19,0.55,-0.31,1.34
28.776,0.94,0.21,-0.40,1.04
28.786,0.65,-0.07,-0.72,0.98
28.797,0.43,-0.11,-0.78,0.90
28.806,0.38,0.08,-0.76,0.85
28.816,0.51,0.56,-0.69,1.02
28.826,0.45,0.94,-0.52,1.16
28.836,0.23,1.01,-0.70,1.25
28.846,0.02,0.95,-1.05,1.42
28.856,-0.29,0.84,-1.23,1.51
28.866,-0.50,0.57,-1.40,1.59
28.876,-0.60,0.23,-1.57,1.70
28.886,-0.66,0.10,-1.68,1.81
28.896,-0.04,0.42,-1.85,1.90
28.906,2.25,3.75,3.67,5.71
28.916,2.51,3.76,5.49,7.11
28.926,-0.22,-1.62,0.31,1.66
28.936,-0.23,-2.86,-1.27,3.14
28.946,0.15,-1.36,-1.15,1.78
28.956,0.49,0.56,0.03,0.74
28.966,0.25,0.79,0.02,0.83
28.976,-0.08,0.08,-0.53,0.55
28.986,0.17,-0.34,0.18,0.42
28.996,0.24,-0.73,0.40,0.87
29.006,-0.45,-1.35,0.21,1.44
29.016,-0.33,-0.72,0.36,0.87
29.026,-0.40,-0.41,-0.13,0.59
29.036,-0.24,-0.03,-0.23,0.34
29.046,0.29,0.18,-0.06,0.35
29.056,0.71,0.55,-0.26,0.93
29.066,0.61,0.66,-0.24,0.93
29.076,0.40,0.31,-0.01,0.51
29.086,0.49,0.17,-0.27,0.59
29.096,0.12,0.03,-0.44,0.46
29.106,-0.47,0.05,-0.29,0.55
29.116,-0.86,0.44,-0.18,0.99
29.126,-1.12,0.84,-0.05,1.40
29.136,-1.25,0.98,-0.03,1.59
29.146,-1.36,1.08,0.02,1.74
29.156,-1.31,0.83,0.18,1.56
29.165,-1.00,0.37,0.14,1.08
29.175,-0.48,-0.01,-0.02,0.48
29.186,-0.17,-0.48,-0.05,0.51
29.195,-0.01,-0.76,0.33,0.83
29.205,0.04,-0.51,0.55,0.75
29.215,0.02,-0.30,0.44,0.54
29.225,0.16,-0.15,0.47,0.52
29.235,0.44,0.18,0.59,0.76
29.246,0.60,0.35,0.71,0.99
29.256,0.51,0.31,1.08,1.24
29.266,0.48,0.21,1.42,1.51
29.276,0.27,-0.10,1.19,1.23
29.286,0.16,-0.65,0.35,0.76
29.296,0.25,-0.74,0.74,1.08
29.305,0.19,-1.08,0.40,1.17
29.316,0.19,-0.98,0.17,1.01
29.326,0.16,-0.55,0.24,0.62
29.335,0.07,-0.15,0.38,0.42
29.345,-0.07,0.06,0.45,0.46
29.356,-0.15,0.10,0.45,0.49
29.365,-0.19,-0.01,0.39,0.43
29.375,-0.21,-0.13,0.20,0.32
29.385,-0.25,-0.24,-0.08,0.36
29.395,-0.19,-0.23,-0.33,0.44
29.405,-0.03,-0.15,-0.52,0.55
29.415,0.14,-0.17,-0.69,0.73
29.425,0.22,-0.40,-0.84,0.95
29.435,0.30,-0.65,-0.87,1.13
29.445,0.36,-0.92,-0.79,1.26
29.455,0.46,-1.06,-0.60,1.30
29.465,0.45,-1.02,-0.22,1.14
29.475,0.33,-0.81,0.15,0.89
29.485,0.35,-0.52,0.48,0.79
29.495,0.35,-0.23,0.77,0.87
29.505,0.31,0.03,1.28,1.32
29.515,0.29,-0.02,1.79,1.81
29.525,0.18,-0.34,1.89,1.93
29.535,0.09,-0.58,1.71,1.81
29.545,0.20,-0.61,1.34,1.49
29.555,0.33,-0.51,0.84,1.03
29.565,0.42,-0.39,0.32,0.66
29.575,0.61,-0.22,-0.06,0.65
29.585,0.81,-0.15,-0.30,0.87
29.595,0.92,-0.19,-0.37,1.01
29.605,0.86,-0.37,-0.38,1.01
29.615,0.80,-0.51,-0.32,1.00
29.625,0.86,-0.54,-0.20,1.04
29.635,0.80,-0.70,-0.13,1.07
29.645,0.61,-0.75,-0.12,0.98
29.655,0.50,-0.54,0.10,0.75
29.665,0.48,-0.34,0.42,0.72
29.675,0.43,-0.25,0.94,1.06
29.685,-0.13,-0.43,2.89,2.92
29.695,-0.77,-0.52,4.38,4.47
29.705,0.01,-0.02,2.15,2.15
29.715,0.23,-0.05,1.24,1.26
29.725,0.44,-0.04,0.17,0.48
29.735,0.63,0.08,-1.32,1.47
29.745,0.57,0.01,-1.70,1.79
29.755,0.42,0.09,-1.20,1.27
29.765,0.55,0.21,-0.69,0.91
29.775,0.59,-0.26,-0.22,0.68
29.785,0.60,-0.77,0.02,0.98
29.795,0.62,-1.05,0.06,1.22
29.805,0.55,-0.97,0.09,1.12
29.815,0.34,-0.63,-0.15,0.73
29.825,0.04,-0.35,-0.39,0.53
29.835,-0.23,-0.21,-0.44,0.54
29.845,-0.24,-0.15,-0.38,0.47
29.855,-0.09,-0.18,-0.34,0.40
29.865,0.08,-0.20,-0.19,0.29
29.875,0.21,-0.10,0.16,0.28
29.885,0.30,-0.13,0.44,0.55
29.895,0.31,-0.28,0.65,0.78
29.905,0.25,-0.40,0.74,0.88
29.915,0.16,-0.36,0.86,0.95
29.925,0.11,-0.23,0.92,0.96
29.935,0.03,-0.09,0.83,0.83
29.945,0.01,-0.04,0.68,0.68
29.954,0.16,-0.11,0.53,0.56
29.964,0.40,-0.24,0.24,0.52
29.975,0.57,-0.27,-0.09,0.64
29.984,0.58,-0.21,-0.23,0.66
29.994,0.49,-0.14,-0.13,0.53
30.004,0.36,-0.11,0.09,0.39
30.014,0.22,-0.09,0.39,0.46
30.024,0.10,-0.09,0.41,0.44
30.034,0.07,-0.19,0.20,0.28
30.044,0.21,-0.27,0.01,0.34
30.054,0.33,-0.22,0.01,0.40
30.064,0.33,-0.14,0.07,0.36
30.074,0.22,-0.10,0.09,0.26
30.085,0.06,-0.13,-0.30,0.34
30.094,-0.07,-0.13,-1.85,1.86
30.104,-0.08,-0.04,-0.55,0.56
30.114,-0.09,-0.26,0.25,0.37
30.124,0.10,-0.21,0.89,0.92
30.134,0.09,0.03,1.36,1.36
30.144,-0.02,0.12,2.16,2.16
30.154,-0.05,0.21,2.10,2.12
30.164,0.07,0.23,0.98,1.01
30.175,0.18,-0.22,-0.07,0.29
30.184,0.49,-0.48,-0.62,0.92
30.194,0.73,-0.56,-0.97,1.34
30.204,0.70,-0.44,-1.01,1.30
30.214,0.57,-0.28,-0.81,1.02
30.224,0.50,-0.22,-0.40,0.68
30.234,0.43,-0.18,0.01,0.47
30.244,0.35,-0.12,0.33,0.50
30.254,0.31,-0.10,0.66,0.74
30.264,0.38,-0.16,0.64,0.76
30.274,0.43,-0.22,0.49,0.69
30.284,0.44,-0.19,0.47,0.67
30.294,0.31,-0.14,0.42,0.54
30.304,0.15,-0.11,0.27,0.32
30.314,0.17,-0.08,0.04,0.20
30.324,0.27,-0.10,-0.20,0.35
30.334,0.38,-0.13,-0.22,0.46
30.344,0.42,-0.09,-0.09,0.44
30.354,0.39,-0.02,0.03,0.40
30.364,0.35,-0.01,0.12,0.37
30.374,0.33,-0.02,0.18,0.37
30.384,0.33,-0.02,0.28,0.44
30.394,0.27,-0.01,0.44,0.52
30.404,0.18,-0.02,0.52,0.54
30.414,0.13,-0.03,0.53,0.54
30.424,0.12,-0.03,0.60,0.61
30.434,0.17,0.01,0.59,0.61
30.444,0.27,-0.02,0.56,0.62
30.454,0.33,-0.08,0.45,0.56
30.464,0.39,-0.04,0.31,0.50
30.474,0.40,-0.05,0.14,0.43
30.484,0.39,-0.03,-0.01,0.39
30.494,0.39,-0.01,-0.07,0.39
30.504,0.36,0.01,-0.08,0.37
30.514,0.34,0.06,-0.11,0.36
30.524,0.34,0.11,-0.17,0.40
30.534,0.36,0.13,-0.22,0.45
30.544,0.39,0.10,-0.17,0.43
30.553,0.37,0.08,-0.17,0.41
30.563,0.30,0.09,-0.24,0.40
30.574,0.26,0.15,-0.30,0.42
30.584,0.21,0.23,-0.33,0.45
30.594,0.19,0.22,-0.25,0.39
30.603,0.22,0.21,-0.26,0.41
30.614,0.31,0.26,-0.40,0.57
30.624,0.42,0.31,-0.56,0.77
30.633,0.47,0.32,-0.66,0.87
30.644,0.48,0.29,-0.64,0.85
30.653,0.45,0.31,-0.52,0.76
30.663,0.42,0.38,-0.36,0.67
30.673,0.41,0.41,-0.30,0.65
30.683,0.38,0.40,-0.22,0.59
30.693,0.32,0.41,-0.15,0.55
30.703,0.34,0.40,-0.14,0.54
30.713,0.39,0.36,-0.10,0.54
30.723,0.43,0.27,-0.12,0.53
30.733,0.43,0.19,-0.16,0.49
30.743,0.39,0.21,-0.22,0.49
30.753,0.33,0.25,-0.23,0.47
30.763,0.27,0.28,-0.18,0.43
30.773,0.17,0.31,-0.06,0.36
30.783,0.12,0.36,0.04,0.38
30.793,0.13,0.40,0.02,0.42
30.803,0.11,0.46,-0.01,0.47
30.813,0.16,0.48,-0.04,0.50
30.823,0.22,0.47,-0.07,0.52
30.833,0.24,0.50,-0.11,0.57
30.843,0.29,0.62,-0.16,0.71
30.853,0.38,0.67,-0.15,0.79
30.863,0.45,0.72,-0.07,0.85
30.873,0.48,0.80,0.06,0.94
30.883,0.52,0.92,0.14,1.07
30.893,0.54,0.94,0.16,1.10
30.903,0.56,0.86,0.12,1.04
30.913,0.63,0.76,0.11,1.00
30.923,0.73,0.62,0.16,0.97
30.933,0.74,0.43,0.25,0.89
30.943,0.71,0.30,0.45,0.89
30.953,0.66,0.17,0.70,0.98
30.963,0.55,0.01,0.89,1.05
30.973,0.45,-0.18,1.03,1.14
30.983,0.38,-0.42,1.03,1.18
30.993,0.32,-0.63,0.89,1.13
31.003,0.27,-0.73,0.68,1.03
31.013,0.25,-0.83,0.52,1.01
31.023,0.15,-0.89,0.34,0.96
31.033,0.10,-0.84,0.18,0.87
31.043,0.10,-0.83,0.09,0.84
31.053,0.06,-0.80,0.03,0.81
31.063,0.03,-0.76,-0.05,0.76
31.073,0.01,-0.74,-0.14,0.75
31.083,0.01,-0.71,-0.25,0.75
31.093,-0.03,-0.73,-0.26,0.77
31.103,-0.12,-0.70,-0.30,0.78
31.113,-0.16,-0.64,-0.24,0.70
31.123,-0.12,-0.73,-0.05,0.74
31.133,-0.13,-0.84,0.23,0.88
31.143,-0.20,-0.93,0.54,1.09
31.153,-0.29,-0.99,0.71,1.25
31.163,-0.19,-1.01,0.83,1.32
31.173,0.03,-1.09,0.86,1.39
31.183,-0.04,-0.98,0.63,1.17
31.193,-0.07,-0.85,0.40,0.94
31.203,-0.11,-0.87,0.17,0.89
31.213,0.14,-1.66,0.57,1.76
31.223,0.44,-1.92,0.68,2.08
31.233,0.38,-1.09,0.23,1.18
31.243,0.09,-0.29,-0.12,0.33
31.252,-0.33,0.32,-0.22,0.51
31.263,-0.71,0.45,-0.18,0.86
31.272,-0.84,0.16,0.00,0.85
31.283,-0.69,-0.40,0.53,0.96
31.292,-0.53,-0.54,0.90,1.18
31.303,-0.37,-0.39,0.83,0.99
31.312,-0.36,-0.24,0.61,0.75
31.322,-0.30,-0.15,0.48,0.59
31.332,-0.21,-0.19,0.44,0.52
31.342,-0.13,-0.29,0.47,0.57
31.352,0.03,-0.37,0.51,0.63
31.362,0.19,-0.47,0.53,0.73
31.372,0.35,-0.57,0.53,0.85
31.382,0.54,-0.62,0.60,1.02
31.392,0.69,-0.76,0.82,1.32
31.402,0.81,-0.88,1.00,1.55
31.412,0.91,-0.94,1.04,1.67
31.422,1.00,-0.97,1.05,1.75
31.432,0.87,-0.83,1.00,1.56
31.442,0.63,-0.51,0.99,1.28
31.452,0.43,-0.28,1.01,1.14
31.462,0.25,-0.26,1.05,1.11
31.472,0.16,-0.33,1.18,1.24
31.482,0.20,-0.43,1.32,1.40
31.492,0.21,-0.52,1.31,1.43
31.502,0.17,-0.52,1.21,1.32
31.512,0.17,-0.46,1.14,1.24
31.522,0.23,-0.51,1.01,1.16
31.532,0.32,-0.58,0.83,1.06
31.542,0.34,-0.64,0.70,1.01
31.552,0.36,-0.74,0.57,1.00
31.562,0.39,-0.75,0.45,0.96
31.572,0.41,-0.74,0.40,0.94
31.582,0.43,-0.77,0.38,0.96
31.592,0.45,-0.82,0.36,1.00
31.602,0.44,-0.86,0.44,1.06
31.612,0.37,-0.87,0.49,1.06
31.622,0.26,-0.87,0.54,1.06
31.632,0.19,-0.71,0.56,0.92
31.642,0.06,-0.63,0.57,0.85
31.652,0.04,-0.71,0.29,0.77
31.662,0.15,-0.61,-0.11,0.64
31.672,0.18,-0.50,-0.43,0.68
31.682,0.16,-0.46,-0.56,0.74
31.692,0.14,-0.43,-0.55,0.71
31.702,0.07,-0.45,-0.41,0.62
31.712,-0.03,-0.51,-0.21,0.56
31.722,-0.18,-0.57,-0.09,0.61
31.732,-0.28,-0.64,-0.05,0.70
31.742,-0.33,-0.73,0.01,0.80
31.752,-0.26,-0.83,0.44,0.97
31.762,-0.34,-0.97,0.86,1.34
31.772,-0.49,-1.09,1.05,1.59
31.782,-0.54,-1.09,1.09,1.64
31.792,-0.54,-0.98,1.00,1.50
31.802,-0.54,-0.82,0.73,1.22
31.812,-0.54,-0.64,0.24,0.88
31.822,-0.47,-0.48,-0.25,0.71
31.832,-0.36,-0.30,-0.78,0.91
31.842,-0.22,-0.18,-1.27,1.30
31.852,-0.11,-0.13,-1.53,1.54
31.862,0.05,-0.09,-1.49,1.50
31.872,0.21,-0.07,-1.27,1.29
31.882,0.29,-0.07,-1.04,1.08
31.892,0.37,-0.03,-0.81,0.89
31.902,0.49,0.05,-0.58,0.76
31.912,0.55,0.09,-0.38,0.68
31.922,0.61,0.14,-0.19,0.66
31.932,0.65,0.17,0.01,0.67
31.942,0.71,0.19,0.32,0.81
31.952,0.77,0.23,0.52,0.96
31.962,0.73,0.28,0.68,1.03
31.971,0.70,0.34,0.81,1.12
31.982,0.75,0.46,0.64,1.09
31.991,0.78,0.55,0.63,1.14
32.001,0.78,0.62,0.55,1.13
32.011,0.74,0.65,0.31,1.03
32.021,0.73,0.69,0.10,1.01
32.031,0.67,0.68,0.01,0.95
32.041,0.56,0.64,0.02,0.86
32.051,0.49,0.60,0.08,0.78
32.061,0.44,0.53,0.13,0.70
32.071,0.36,0.48,0.40,0.72
32.081,0.27,0.43,0.89,1.02
32.091,0.15,0.35,1.21,1.26
32.101,0.02,0.27,1.31,1.34
32.111,-0.12,0.29,1.30,1.34
32.121,-0.24,0.37,1.12,1.21
32.131,-0.24,0.49,0.68,0.87
32.141,-0.19,0.52,0.39,0.68
32.151,-0.07,0.44,-0.01,0.45
32.161,0.06,0.31,-0.13,0.34
32.171,0.14,0.21,0.01,0.26
32.181,0.12,0.14,0.24,0.30
32.191,0.06,0.18,0.47,0.51
32.201,-0.01,0.32,0.73,0.80
32.211,-0.09,0.49,0.79,0.94
32.221,-0.14,0.63,0.41,0.76
32.231,-0.13,0.82,-0.13,0.84
32.241,-0.05,0.98,-0.38,1.05
32.251,0.04,0.97,-0.53,1.11
32.261,0.15,0.90,-0.55,1.06
32.271,0.22,0.78,-0.41,0.91
32.281,0.21,0.70,-0.30,0.79
32.291,0.14,0.78,-0.31,0.85
32.301,0.06,0.86,-0.33,0.92
32.311,-0.01,0.85,-0.38,0.93
32.321,0.00,0.76,-0.46,0.88
32.331,0.03,0.68,-0.47,0.83
32.341,0.04,0.72,-0.45,0.85
32.351,-0.01,0.77,-0.26,0.81
32.361,-0.07,0.72,-0.33,0.80
32.371,0.06,0.50,-1.00,1.12
32.381,0.27,0.13,-2.60,2.62
32.391,0.27,0.07,-1.41,1.44
32.401,0.18,0.25,0.25,0.40
32.411,-0.09,0.68,1.28,1.45
32.421,-0.25,0.90,1.20,1.52
32.431,-0.15,0.77,0.86,1.17
32.441,-0.02,0.37,0.30,0.48
32.451,-0.00,-0.24,-0.21,0.32
