time,ax,ay,az,atotal
0.000,-0.18,-0.40,1.18,1.26
0.010,-0.53,-1.03,0.63,1.31
0.020,-0.45,-1.44,0.01,1.51
0.030,0.09,-1.56,-0.17,1.57
0.040,0.53,-1.21,-0.04,1.32
0.050,0.61,-0.71,0.17,0.95
0.060,0.70,-0.56,0.03,0.89
0.070,0.86,-0.74,-0.18,1.15
0.080,1.04,-0.58,-0.17,1.21
0.090,0.87,-0.74,0.21,1.16
0.100,0.69,-0.96,0.36,1.23
0.110,0.61,-1.12,0.28,1.31
0.120,0.78,-0.98,0.29,1.28
0.130,0.53,-0.78,0.25,0.97
0.140,0.63,-0.49,0.25,0.83
0.150,0.49,0.17,0.04,0.52
0.160,0.86,0.19,0.40,0.97
0.170,1.19,-0.13,0.01,1.20
0.180,1.32,-0.27,-1.13,1.76
0.190,1.25,-0.43,-1.48,1.98
0.200,1.16,-0.89,-1.11,1.84
0.210,1.08,-1.40,-1.17,2.12
0.220,1.13,-1.61,-0.87,2.15
0.230,0.65,-1.10,-0.12,1.28
0.240,-0.20,-0.18,-0.04,0.27
0.250,-0.39,0.01,0.77,0.86
0.260,-0.34,-0.53,1.59,1.71
0.270,-0.26,-1.26,2.22,2.57
0.280,-0.54,-1.76,1.11,2.15
0.290,-0.48,-2.19,0.84,2.40
0.300,0.13,-2.35,0.54,2.41
0.310,0.76,-2.27,-1.23,2.69
0.320,0.62,-1.16,0.96,1.63
0.330,1.03,-0.86,1.56,2.06
0.340,0.99,-1.84,1.00,2.32
0.350,0.62,-1.37,1.97,2.48
0.360,0.27,-0.56,2.51,2.59
0.369,0.15,-0.45,2.40,2.45
0.380,0.28,-0.04,2.16,2.18
0.390,0.60,0.36,2.00,2.11
0.399,0.68,-0.30,1.99,2.12
0.410,0.52,-0.78,2.60,2.76
0.419,0.16,-0.86,2.65,2.79
0.429,0.10,-0.85,2.91,3.03
0.439,-0.11,-0.79,3.36,3.45
0.449,-0.40,-0.05,3.92,3.94
0.459,-0.17,0.39,5.53,5.54
0.469,-0.08,-0.61,4.43,4.47
0.479,0.15,-1.44,3.12,3.44
0.490,0.51,-1.15,3.00,3.25
0.499,0.13,-0.57,3.34,3.39
0.509,-0.36,-0.27,3.36,3.39
0.519,-0.37,-0.50,3.23,3.29
0.529,-0.32,-0.89,2.74,2.90
0.539,-0.12,-1.06,2.10,2.36
0.549,0.01,-1.29,1.78,2.20
0.559,-0.06,-1.27,1.16,1.72
0.569,0.08,-0.73,0.01,0.74
0.579,0.14,0.04,-0.58,0.60
0.589,-0.17,0.59,-1.19,1.34
0.599,-0.34,0.50,-1.47,1.59
0.609,-0.33,0.16,-1.56,1.60
0.619,-0.66,-0.07,-1.94,2.05
0.629,-2.34,-0.16,-3.18,3.95
0.639,-2.32,-0.53,-2.51,3.46
0.649,-0.83,-0.77,-0.55,1.26
0.659,-0.28,-0.01,-0.56,0.62
0.669,-0.05,-0.05,-1.56,1.56
0.679,0.65,0.52,-1.44,1.66
0.689,0.90,1.12,-1.23,1.89
0.699,-0.23,-0.04,-1.50,1.52
0.709,-0.42,-1.25,-0.95,1.63
0.719,-0.27,-1.94,-0.24,1.97
0.729,-0.58,-2.08,-0.37,2.19
0.739,-0.68,-1.63,-0.06,1.76
0.749,-0.48,-1.07,0.32,1.22
0.759,-0.02,-0.65,0.37,0.75
0.769,0.46,-0.81,0.14,0.94
0.779,0.66,-1.47,1.12,1.96
0.789,0.41,-2.38,1.51,2.85
0.799,0.38,-3.06,2.21,3.80
0.809,0.52,-2.83,2.09,3.55
0.819,0.83,-1.62,0.98,2.06
0.829,0.24,-0.34,1.07,1.14
0.839,-1.06,1.02,1.47,2.08
0.849,-1.43,-0.16,1.66,2.20
0.859,-2.14,-1.48,4.11,4.86
0.869,-1.09,-1.83,5.44,5.84
0.879,1.35,-2.90,2.74,4.21
0.889,2.83,-3.77,0.36,4.73
0.899,2.25,-3.56,2.79,5.05
0.909,1.23,-2.38,6.56,7.08
0.919,-0.16,-1.05,8.85,8.91
0.929,-1.58,0.15,8.76,8.91
0.939,-3.26,1.16,8.77,9.43
0.949,-6.38,2.74,13.31,15.01
0.959,-6.54,4.75,13.45,15.69
0.969,-5.17,5.52,9.93,12.49
0.979,-3.79,6.48,7.82,10.84
0.989,-2.02,8.20,4.32,9.49
0.999,-1.47,7.27,2.25,7.75
1.009,0.33,6.96,-1.04,7.04
1.018,0.72,4.98,3.00,5.86
1.029,0.33,3.36,1.88,3.86
1.039,0.39,3.62,0.16,3.65
1.049,-1.12,2.89,-2.73,4.13
1.058,-3.17,3.08,-7.45,8.66
1.068,-5.69,3.70,-9.27,11.49
1.079,-7.36,4.06,-7.70,11.40
1.088,-7.55,2.65,-3.67,8.80
1.099,-4.60,0.36,-3.89,6.04
1.109,-1.47,-1.13,-11.55,11.69
1.118,1.16,-0.53,-10.61,10.69
1.129,2.07,0.08,-10.20,10.40
1.138,0.97,1.09,-9.73,9.84
1.148,-0.05,2.39,-8.79,9.10
1.158,0.67,3.70,-10.22,10.89
1.169,0.89,3.53,-10.72,11.32
1.178,0.46,3.15,-9.64,10.15
1.188,-0.45,2.99,-6.90,7.54
1.198,0.72,4.41,-6.44,7.84
1.208,2.83,5.05,-6.17,8.46
1.218,4.38,4.08,-5.31,8.00
1.228,5.72,3.30,-4.29,7.87
1.238,6.58,2.58,-3.32,7.81
1.248,7.18,1.72,-3.60,8.22
1.258,8.16,1.12,-3.82,9.08
1.268,7.93,-0.04,-3.49,8.67
1.278,8.17,-0.88,-3.20,8.82
1.288,8.11,-1.45,-2.10,8.51
1.298,7.41,-1.47,-0.49,7.57
1.308,7.19,-0.76,-0.64,7.26
1.318,6.97,-0.51,-0.89,7.04
1.328,6.19,-0.63,0.31,6.23
1.338,5.54,-0.57,0.93,5.65
1.348,5.05,-0.43,0.99,5.16
1.358,4.82,-0.30,0.66,4.88
1.368,4.58,-0.39,0.34,4.61
1.378,4.32,-0.34,0.36,4.35
1.388,4.13,-0.43,0.19,4.16
1.398,4.01,-0.84,-0.43,4.12
1.408,3.71,-1.49,0.10,4.00
1.418,3.17,-2.60,0.75,4.17
1.428,3.07,-3.69,1.91,5.17
1.438,3.32,-5.35,1.55,6.49
1.448,3.48,-6.55,1.52,7.57
1.458,3.56,-5.97,2.53,7.40
1.468,2.65,-3.34,2.23,4.81
1.478,3.44,0.35,1.94,3.96
1.488,2.17,-0.15,2.78,3.53
1.498,1.20,0.50,1.81,2.23
1.508,1.14,0.48,1.48,1.92
1.518,0.75,-1.02,1.69,2.12
1.528,0.81,-1.22,2.47,2.87
1.538,1.14,0.17,1.61,1.98
1.548,1.06,1.35,0.37,1.76
1.558,0.69,1.43,-0.41,1.64
1.568,0.32,0.77,-0.46,0.95
1.578,0.06,-0.52,-0.18,0.56
1.588,0.10,-1.74,0.73,1.89
1.598,0.05,-3.02,1.60,3.42
1.608,-0.33,-4.58,1.54,4.84
1.618,-0.45,-4.89,0.52,4.94
1.628,-0.44,-3.66,-0.68,3.75
1.638,-0.67,-2.05,-1.42,2.58
1.648,-0.90,-0.95,-0.95,1.62
1.658,-0.69,-0.28,-0.93,1.19
1.668,-0.59,-0.29,-1.62,1.75
1.678,-0.18,-0.52,-2.11,2.18
1.687,0.42,-0.56,-2.59,2.68
1.698,1.03,-0.59,-2.35,2.63
1.708,1.19,-1.94,-1.79,2.90
1.718,0.58,-3.82,-0.86,3.96
1.728,0.32,-4.21,-0.09,4.23
1.737,0.89,-2.82,-0.50,3.00
1.748,1.36,-0.98,-1.78,2.45
1.758,1.47,0.49,-2.39,2.85
1.768,1.19,0.93,-2.25,2.71
1.777,0.88,0.07,-1.73,1.94
1.787,0.55,-1.29,-1.22,1.86
1.797,0.45,-2.09,-0.55,2.21
1.808,0.87,-1.70,-0.23,1.93
1.818,1.52,-0.28,-0.96,1.82
1.827,2.01,1.02,-0.21,2.26
1.837,2.45,1.94,1.55,3.49
1.848,2.88,2.11,2.39,4.29
1.858,2.61,1.79,4.14,5.21
1.867,2.17,1.19,5.36,5.91
1.877,1.75,0.61,4.96,5.29
1.887,1.50,0.26,3.74,4.04
1.898,1.39,-0.70,1.60,2.23
1.907,1.70,-1.51,-0.05,2.27
1.917,2.33,-2.28,-0.90,3.38
1.928,3.21,-2.36,-1.05,4.12
1.937,3.61,-1.68,-1.03,4.11
1.947,3.26,-1.38,-1.03,3.69
1.957,2.64,-0.83,-1.04,2.95
1.967,1.79,0.21,-1.39,2.27
1.977,0.65,1.02,-2.26,2.56
1.987,-0.27,1.36,-2.96,3.27
1.997,-0.59,1.80,-3.40,3.89
2.007,-0.75,2.31,-3.66,4.40
2.017,-0.66,2.55,-3.46,4.35
2.027,-0.64,2.75,-1.83,3.37
2.037,-1.60,2.12,0.29,2.67
2.047,-2.66,0.54,1.73,3.22
2.057,-1.91,-0.75,2.40,3.16
2.067,-0.80,-0.84,2.36,2.63
2.077,-0.57,-0.04,2.10,2.17
2.087,-0.53,0.70,0.89,1.25
2.097,-0.52,1.57,0.35,1.69
2.107,-1.84,0.98,0.61,2.17
2.117,-2.44,0.80,0.77,2.68
2.127,-1.64,1.37,0.43,2.18
2.137,-0.86,1.51,-0.02,1.73
2.147,-0.64,1.25,-0.23,1.42
2.157,-0.22,1.06,0.77,1.33
2.167,0.48,0.34,2.50,2.57
2.177,1.19,-0.21,2.72,2.98
2.187,1.26,-0.58,1.85,2.31
2.197,0.87,-1.42,1.12,2.01
2.207,0.82,-2.28,0.26,2.43
2.217,1.01,-3.09,-0.63,3.31
2.227,1.53,-3.82,-1.33,4.33
2.237,2.19,-4.55,-1.40,5.24
2.247,2.38,-5.20,-1.33,5.87
2.257,2.05,-5.23,-1.10,5.72
2.267,1.57,-4.76,-1.18,5.15
2.277,1.06,-4.14,-1.29,4.46
2.287,0.07,-3.19,-1.30,3.45
2.297,-1.94,-1.60,-1.36,2.86
2.307,-4.12,0.54,-1.13,4.31
2.317,-5.41,2.84,-0.80,6.16
2.327,-5.41,4.00,-1.22,6.84
2.337,-5.28,4.30,-1.47,6.96
2.347,-5.32,4.45,-0.87,6.99
2.357,-4.66,3.76,-1.13,6.09
2.367,-3.49,2.23,-1.60,4.44
2.377,-2.18,0.42,-0.89,2.39
2.387,-1.25,-0.98,0.38,1.64
2.397,-0.97,-1.70,1.24,2.32
2.407,-1.00,-1.69,1.36,2.38
2.417,-1.01,-1.40,1.00,1.99
2.427,-1.05,-0.86,0.45,1.43
2.436,-0.89,-0.55,0.17,1.06
2.447,-0.56,-0.64,-0.19,0.87
2.457,-0.08,-1.37,-0.26,1.40
2.467,0.35,-2.11,-0.65,2.24
2.477,0.47,-1.99,-1.54,2.56
2.487,0.48,-1.50,-2.41,2.88
2.497,0.45,-0.78,-2.69,2.84
2.506,0.41,-0.52,-1.64,1.77
2.516,0.18,-0.62,-0.15,0.66
2.527,-0.13,-1.10,0.99,1.48
2.536,-0.13,-2.23,1.60,2.75
2.547,-0.37,-2.95,0.97,3.13
2.557,-0.48,-3.24,0.40,3.30
2.566,-0.41,-2.74,1.02,2.96
2.576,-0.93,1.27,-0.47,1.65
2.586,-1.36,7.60,-5.93,9.74
2.596,-2.15,12.49,-10.23,16.29
2.607,-3.79,10.59,-7.23,13.37
2.616,-4.31,6.23,-0.10,7.57
2.626,-1.57,2.33,1.68,3.27
2.636,2.27,-1.14,2.17,3.34
2.646,3.85,-2.41,2.07,4.99
2.656,3.29,-1.73,0.55,3.75
2.666,1.47,-0.92,-0.11,1.74
2.676,0.21,-1.04,-0.93,1.41
2.686,-0.13,-1.55,-2.08,2.60
2.696,-0.28,-1.98,-2.35,3.08
2.706,-0.48,-1.97,-1.74,2.68
2.716,-0.50,-2.19,-0.88,2.42
2.726,-0.61,-1.44,-0.00,1.57
2.736,0.18,-2.55,-0.90,2.71
2.746,1.71,0.01,-4.72,5.02
2.756,1.15,2.08,-2.90,3.75
2.766,0.14,2.65,-2.00,3.32
2.776,-1.00,2.27,-0.20,2.49
2.786,-1.40,1.78,1.34,2.63
2.796,-0.64,1.95,1.64,2.63
2.806,1.13,2.40,1.80,3.20
2.816,2.27,3.10,1.71,4.21
2.826,2.39,4.17,1.39,5.01
2.836,1.42,5.26,0.99,5.54
2.846,-0.12,6.11,0.44,6.12
2.856,-1.14,6.87,-0.22,6.97
2.866,-1.53,7.94,-0.66,8.11
2.876,-1.77,9.22,-0.87,9.43
2.886,-1.93,9.88,-0.82,10.10
2.896,-1.89,9.20,-0.48,9.40
2.906,-1.20,7.21,-0.10,7.31
2.916,-0.73,6.08,-0.09,6.12
2.926,-0.77,5.70,-0.05,5.75
2.936,-1.05,5.05,0.28,5.16
2.946,-1.26,3.87,0.75,4.14
2.956,-1.23,2.48,1.14,3.00
2.966,-0.99,1.13,1.27,1.97
2.976,-0.63,-0.11,1.10,1.27
2.986,-0.23,-1.32,0.74,1.53
2.996,0.13,-2.58,0.36,2.61
3.006,0.46,-3.78,-0.04,3.81
3.016,0.76,-4.78,-0.45,4.86
3.026,0.94,-5.59,-0.80,5.73
3.036,0.98,-6.54,-1.12,6.70
3.046,0.88,-7.57,-1.26,7.72
3.056,0.87,-8.25,-1.49,8.43
3.066,0.77,-8.42,-1.50,8.59
3.076,0.76,-8.05,-1.46,8.22
3.086,0.75,-7.34,-1.60,7.55
3.095,0.81,-6.12,-1.78,6.43
3.106,0.95,-4.39,-1.68,4.79
3.116,0.89,-2.96,-1.62,3.48
3.126,1.02,-0.97,-1.49,2.05
3.136,1.41,1.23,-1.55,2.43
3.146,1.92,3.31,-1.58,4.14
3.156,2.32,5.18,-1.15,5.79
3.166,2.22,6.07,0.00,6.46
3.176,1.29,4.67,1.41,5.04
3.185,0.53,2.22,2.66,3.50
3.196,0.39,1.04,3.35,3.53
3.206,0.49,0.69,2.92,3.04
3.216,0.39,0.39,1.95,2.03
3.225,0.03,0.02,1.00,1.00
3.235,-0.39,-0.39,0.32,0.64
3.245,-0.65,-0.90,-0.07,1.11
3.256,-0.75,-1.50,-0.33,1.71
3.265,-0.87,-2.09,-0.70,2.37
3.275,-1.01,-2.59,-1.07,2.98
3.285,-1.16,-2.96,-1.27,3.42
3.295,-1.26,-3.10,-1.34,3.60
3.305,-1.20,-2.79,-1.36,3.33
3.315,-0.88,-2.16,-1.18,2.61
3.325,-0.48,-1.65,-0.76,1.88
3.335,-0.08,-1.27,-0.30,1.31
3.345,0.26,-1.02,0.32,1.10
3.355,0.48,-0.93,0.98,1.44
3.365,0.59,-0.92,1.49,1.85
3.375,0.56,-0.86,1.69,1.98
3.385,0.39,-0.97,1.44,1.78
3.395,0.15,-1.35,0.92,1.64
3.405,-0.05,-1.95,0.33,1.98
3.415,-0.21,-2.59,-0.24,2.61
3.426,-0.36,-3.18,-0.83,3.31
3.435,-0.48,-3.58,-1.31,3.85
3.445,-0.51,-3.80,-1.61,4.16
3.455,-0.44,-3.73,-1.77,4.15
3.465,-0.33,-3.43,-1.91,3.94
3.475,-0.17,-2.99,-2.07,3.64
3.485,0.04,-2.34,-2.23,3.23
3.495,0.39,-1.45,-2.40,2.83
3.505,0.91,-0.37,-2.49,2.67
3.515,1.53,0.96,-2.09,2.77
3.525,2.40,2.52,-1.13,3.66
3.535,3.48,4.00,-0.15,5.30
3.545,4.17,5.96,0.96,7.34
3.555,3.93,8.54,1.10,9.47
3.565,2.69,10.00,0.03,10.35
3.575,0.91,9.93,-0.82,10.00
3.585,-0.85,9.80,-1.40,9.93
3.596,-2.09,9.94,-1.76,10.31
3.605,-2.38,9.54,-1.89,10.01
3.615,-0.97,6.29,-1.03,6.45
3.625,1.18,3.07,0.25,3.29
3.635,1.93,1.91,0.72,2.81
3.645,2.08,1.26,0.35,2.46
3.655,1.93,0.79,-0.18,2.10
3.665,1.46,0.21,-0.52,1.56
3.675,0.85,-0.54,-0.24,1.03
3.685,0.24,-1.14,0.58,1.30
3.695,-0.22,-1.76,1.25,2.17
3.705,-0.61,-2.50,1.35,2.91
3.715,-1.13,-3.11,1.07,3.48
3.725,-1.68,-3.59,0.69,4.03
3.735,-2.21,-4.01,0.39,4.60
3.745,-2.81,-4.35,0.27,5.18
3.755,-3.48,-4.59,0.28,5.76
3.765,-4.22,-4.73,0.37,6.34
3.775,-5.00,-4.63,0.49,6.83
3.784,-5.64,-4.16,0.58,7.04
3.795,-5.93,-3.19,0.49,6.75
3.805,-5.78,-1.97,0.14,6.11
3.815,-5.06,-0.95,-0.30,5.16
3.825,-3.57,-0.55,-0.26,3.62
3.835,-2.12,0.05,-0.07,2.12
3.845,-0.89,1.00,-0.03,1.34
3.855,0.20,2.01,0.04,2.02
3.865,1.28,2.74,0.23,3.04
3.875,2.14,2.71,0.52,3.49
3.885,2.51,1.88,0.86,3.26
3.895,2.48,0.83,1.01,2.80
3.904,2.13,-0.10,0.84,2.30
3.915,1.78,-0.85,0.29,1.99
3.925,1.35,-1.43,-0.39,2.01
3.935,0.64,-1.96,-0.97,2.29
3.944,-0.22,-2.36,-1.34,2.72
3.954,-0.92,-2.51,-1.59,3.10
3.965,-1.34,-2.53,-1.75,3.36
3.975,-1.59,-2.43,-1.76,3.40
3.984,-1.77,-2.20,-1.64,3.27
3.994,-1.91,-1.87,-1.23,2.94
4.004,-2.01,-1.47,-0.44,2.53
4.015,-2.12,-1.11,0.69,2.49
4.025,-2.12,-0.82,1.63,2.80
4.034,-1.88,-0.64,1.81,2.69
4.045,-1.50,-0.72,1.34,2.13
4.054,-1.02,-1.04,0.53,1.54
4.065,-0.48,-1.49,-0.59,1.68
4.075,0.03,-1.90,-1.77,2.59
4.084,0.49,-1.98,-2.65,3.35
4.094,0.73,-1.80,-2.97,3.55
4.104,0.67,-1.61,-2.74,3.24
4.114,0.46,-1.39,-2.40,2.81
4.124,0.35,-1.08,-2.30,2.56
4.135,0.37,-0.70,-2.25,2.39
4.144,0.51,-0.37,-2.13,2.22
4.154,0.78,0.04,-1.98,2.13
4.164,1.07,0.67,-1.83,2.22
4.174,1.30,1.54,-1.56,2.55
4.184,1.29,2.66,-1.06,3.14
4.194,0.83,4.06,-0.24,4.15
4.204,-0.07,5.73,0.89,5.80
4.214,-0.94,7.27,2.29,7.68
4.224,-1.43,8.51,3.18,9.19
4.234,-0.54,9.41,3.20,9.95
4.244,1.76,8.48,2.75,9.08
4.254,3.04,6.29,2.01,7.27
4.264,2.12,4.40,1.41,5.08
4.274,-0.06,3.44,0.83,3.54
4.284,-2.04,3.63,0.39,4.18
4.294,-3.25,4.10,-0.13,5.24
4.304,-3.78,4.27,-0.70,5.75
4.314,-3.57,3.87,-1.25,5.41
4.324,-2.81,2.94,-1.55,4.36
4.334,-2.17,1.75,-1.51,3.17
4.344,-1.86,0.53,-1.48,2.43
4.354,-1.47,-0.84,-1.42,2.21
4.364,-0.97,-2.21,-1.04,2.63
4.374,-0.62,-3.42,-0.46,3.51
4.384,-0.31,-4.52,-0.02,4.53
4.394,-0.05,-5.35,0.25,5.36
4.404,0.08,-5.91,0.51,5.93
4.414,0.00,-6.29,0.86,6.35
4.424,-0.20,-6.49,1.19,6.60
4.434,-0.35,-6.46,1.36,6.61
4.444,-0.20,-6.17,1.23,6.30
4.454,0.13,-5.59,0.89,5.66
4.464,0.53,-4.80,0.49,4.86
4.474,0.85,-4.01,0.19,4.11
4.483,1.02,-3.11,-0.01,3.27
4.494,1.23,-1.80,-0.33,2.20
4.503,1.57,-0.31,-0.69,1.74
4.514,1.98,1.62,-0.78,2.67
4.524,2.49,3.35,-0.90,4.27
4.534,2.92,4.44,-0.91,5.39
4.544,3.08,5.04,-0.53,5.93
4.553,2.54,4.97,0.19,5.58
4.564,1.41,4.15,0.95,4.48
4.574,0.33,3.20,1.87,3.72
4.583,-0.45,2.25,2.56,3.44
4.594,-0.88,1.09,2.60,2.95
4.603,-0.93,-0.03,1.89,2.11
4.614,-0.86,-0.87,0.95,1.55
4.624,-0.88,-1.35,0.04,1.61
4.633,-1.12,-1.49,-0.59,1.96
4.644,-1.38,-1.43,-0.79,2.14
4.653,-1.36,-1.38,-0.71,2.07
4.664,-1.07,-1.53,-0.39,1.91
4.674,-0.64,-1.74,0.21,1.86
4.683,-0.28,-1.83,0.88,2.05
4.693,0.00,-1.78,1.34,2.23
4.703,0.23,-1.58,1.45,2.16
4.713,0.42,-1.39,1.21,1.89
4.724,0.61,-1.19,0.79,1.55
4.733,0.74,-1.15,0.38,1.42
4.743,0.74,-1.35,0.13,1.55
4.753,0.61,-1.64,0.07,1.75
4.763,0.48,-1.84,0.04,1.90
4.773,0.36,-2.17,-0.15,2.20
4.783,0.22,-2.53,-0.47,2.58
4.793,0.09,-2.95,-0.89,3.08
4.803,0.05,-3.44,-1.27,3.67
4.813,0.07,-3.85,-1.54,4.15
4.823,0.10,-4.07,-1.72,4.42
4.833,0.16,-4.03,-1.80,4.41
4.843,0.23,-3.78,-1.86,4.22
4.853,0.37,-3.38,-1.96,3.93
4.863,0.66,-2.86,-2.08,3.60
4.874,1.11,-2.23,-1.93,3.15
4.883,1.87,-1.40,-1.11,2.59
4.893,2.92,-0.58,0.10,2.98
4.903,3.73,1.12,1.87,4.32
4.913,3.73,4.42,3.06,6.54
4.923,2.72,8.23,1.72,8.84
4.933,0.66,10.44,-0.53,10.47
4.943,-0.95,10.47,-1.70,10.65
4.953,-2.05,9.62,-1.71,9.99
4.963,-3.22,8.10,-0.91,8.76
4.973,-2.99,6.21,-0.96,6.96
4.983,-1.03,3.72,-0.68,3.92
4.993,1.16,2.54,0.35,2.81
5.003,2.72,1.88,0.07,3.31
5.013,3.70,1.18,-1.03,4.02
5.023,4.17,0.81,-2.00,4.69
5.033,3.96,0.85,-2.16,4.59
5.043,3.00,1.22,-0.93,3.37
5.053,1.88,1.85,1.04,2.83
5.063,1.24,1.98,2.53,3.45
5.073,0.90,1.79,2.87,3.50
5.083,0.34,1.52,2.08,2.59
5.093,-0.53,0.95,1.10,1.55
5.103,-1.29,0.24,0.53,1.41
5.113,-1.80,-0.78,0.33,1.99
5.123,-2.14,-2.12,0.32,3.03
5.133,-2.37,-3.59,0.30,4.31
5.143,-2.57,-4.97,0.28,5.60
5.152,-2.84,-6.02,0.24,6.66
5.163,-3.10,-6.63,0.09,7.32
5.173,-3.37,-6.81,-0.23,7.60
5.183,-3.68,-6.59,-0.66,7.58
5.193,-4.10,-5.84,-1.13,7.22
5.202,-4.31,-4.40,-1.55,6.35
5.213,-4.00,-2.47,-1.64,4.98
5.223,-3.21,-0.51,-1.39,3.54
5.233,-2.12,1.18,-0.94,2.60
5.243,-0.94,2.48,-0.25,2.66
5.252,0.22,3.22,0.62,3.28
5.263,1.18,3.23,1.31,3.68
5.273,1.81,2.42,1.57,3.41
5.283,1.92,1.13,1.50,2.69
5.292,1.58,-0.08,1.31,2.05
5.302,1.06,-0.91,1.01,1.72
5.312,0.57,-1.47,0.53,1.66
5.323,0.25,-1.80,-0.05,1.82
5.333,0.05,-1.88,-0.57,1.96
5.343,-0.13,-1.88,-1.04,2.16
5.352,-0.36,-1.82,-1.42,2.34
5.363,-0.62,-1.70,-1.59,2.41
5.372,-0.85,-1.50,-1.55,2.32
5.383,-1.07,-1.24,-1.23,2.05
5.392,-1.32,-1.01,-0.55,1.75
5.402,-1.52,-0.70,0.24,1.69
5.412,-1.60,-0.30,0.82,1.82
5.422,-1.53,-0.06,1.04,1.85
5.432,-1.31,0.09,0.96,1.63
5.442,-1.01,0.12,0.63,1.20
5.452,-0.72,0.08,0.08,0.73
5.462,-0.47,0.02,-0.49,0.68
5.472,-0.26,-0.02,-1.00,1.04
5.483,-0.09,-0.15,-1.42,1.43
5.492,0.05,-0.42,-1.70,1.75
5.502,0.20,-0.87,-1.89,2.09
5.512,0.36,-1.47,-1.87,2.41
5.522,0.56,-1.94,-1.58,2.56
5.532,0.72,-1.98,-1.20,2.42
5.542,0.58,-1.63,-1.17,2.09
5.552,0.29,-1.32,-1.35,1.91
5.562,0.18,-1.19,-1.54,1.95
5.572,0.23,-1.11,-1.69,2.04
5.582,0.35,-1.08,-1.63,1.99
5.592,0.41,-1.01,-1.52,1.87
5.602,0.41,-0.87,-1.60,1.86
5.612,0.33,-0.54,-1.73,1.84
5.622,0.14,0.12,-1.82,1.83
5.632,-0.10,1.19,-1.89,2.24
5.642,-0.40,2.64,-2.07,3.38
5.652,-0.72,4.47,-2.27,5.07
5.662,-0.80,6.52,-1.63,6.76
5.672,-0.24,8.26,-0.16,8.26
5.682,1.32,9.00,0.90,9.14
5.692,3.35,7.80,1.18,8.57
5.702,4.00,5.13,1.29,6.63
5.712,2.63,2.81,1.42,4.11
5.722,0.52,2.32,1.07,2.61
5.732,-1.56,2.90,0.23,3.30
5.742,-3.00,3.94,-0.82,5.02
5.752,-3.45,5.08,-1.91,6.44
5.762,-3.16,5.80,-2.58,7.09
5.772,-2.67,5.67,-2.22,6.64
5.782,-2.31,4.50,-0.83,5.13
5.792,-1.79,3.45,-0.82,3.97
5.802,-1.36,3.12,-1.19,3.61
5.812,-1.11,3.06,-0.80,3.35
5.822,-0.76,2.48,-0.47,2.63
5.832,-0.52,1.08,-0.02,1.20
5.842,-0.42,-0.44,0.54,0.81
5.852,-0.38,-1.75,1.06,2.09
5.862,-0.25,-2.85,1.56,3.26
5.872,-0.05,-3.92,2.01,4.41
5.882,0.16,-4.92,2.37,5.46
5.892,0.18,-5.78,2.60,6.34
5.902,-0.07,-6.51,2.52,6.98
5.912,-0.42,-7.09,1.89,7.35
5.921,-0.68,-7.77,0.86,7.85
5.932,-0.91,-8.47,-0.07,8.52
5.942,-0.98,-8.30,-0.75,8.39
5.952,-0.90,-7.34,-1.53,7.55
5.962,-0.93,-6.09,-2.11,6.51
5.971,-0.87,-4.19,-2.37,4.89
5.982,-0.54,-1.72,-2.33,2.95
5.991,0.25,0.77,-2.13,2.27
6.002,1.19,2.96,-1.99,3.76
6.011,2.22,5.63,-1.80,6.32
6.021,3.58,8.67,-0.84,9.42
6.032,4.88,10.03,1.46,11.25
6.041,4.42,7.15,3.47,9.09
6.051,2.46,3.46,4.12,5.91
6.061,1.27,1.46,4.09,4.53
6.071,1.11,0.21,3.09,3.29
6.082,1.34,-0.60,1.61,2.18
6.091,1.45,-1.06,0.36,1.84
6.101,1.44,-1.13,-0.38,1.87
6.111,1.18,-1.21,-1.01,1.97
6.121,0.64,-1.60,-1.61,2.35
6.131,0.01,-1.98,-1.79,2.67
6.141,-0.52,-2.21,-1.46,2.70
6.151,-0.81,-2.26,-0.70,2.50
6.161,-0.75,-2.33,-0.06,2.45
6.171,-0.61,-2.47,0.23,2.55
6.181,-0.56,-2.55,0.43,2.64
6.191,-0.56,-2.61,0.70,2.76
6.201,-0.50,-2.66,0.90,2.85
6.211,-0.44,-2.73,0.95,2.92
6.221,-0.41,-2.89,0.78,3.02
6.231,-0.27,-3.18,0.36,3.22
6.241,-0.05,-3.55,-0.17,3.56
6.251,0.17,-3.87,-0.79,3.96
6.261,0.28,-4.09,-1.43,4.34
6.271,0.21,-4.13,-2.01,4.60
6.281,0.09,-4.03,-2.64,4.82
6.291,0.12,-3.79,-3.21,4.96
6.301,0.43,-3.32,-3.51,4.85
6.311,1.21,-2.65,-3.17,4.30
6.321,2.34,-1.55,-1.99,3.44
6.331,3.51,0.97,-0.38,3.66
6.341,4.09,5.23,0.34,6.65
6.351,3.60,9.64,-1.13,10.35
6.361,2.07,11.58,-1.87,11.92
6.372,0.80,11.34,-0.85,11.40
6.382,-0.39,11.41,0.76,11.45
6.392,-2.08,11.22,1.62,11.53
6.401,-2.33,9.50,0.68,9.81
6.411,-0.44,5.66,0.72,5.73
6.421,1.04,3.54,1.37,3.94
6.431,1.36,1.95,0.72,2.48
6.441,1.56,0.36,-0.60,1.71
6.451,1.64,-0.95,-1.67,2.53
6.461,1.45,-2.15,-1.94,3.24
6.471,1.12,-2.87,-1.15,3.29
6.481,0.57,-2.92,0.18,2.98
6.491,-0.18,-2.94,1.01,3.11
6.501,-0.95,-3.19,1.10,3.50
6.511,-1.61,-3.63,0.82,4.05
6.521,-2.22,-4.06,0.56,4.66
6.531,-2.90,-4.44,0.43,5.32
6.541,-3.70,-4.74,0.49,6.04
6.551,-4.72,-4.95,0.80,6.88
6.561,-5.85,-4.82,1.15,7.67
6.571,-6.75,-4.13,1.35,8.03
6.581,-7.09,-3.03,1.20,7.80
6.591,-6.71,-1.80,0.69,6.98
6.601,-5.41,-1.10,0.23,5.52
6.611,-3.73,-0.70,-0.08,3.80
6.620,-2.09,0.26,-0.40,2.15
6.631,-0.56,1.53,-0.56,1.72
6.641,0.72,2.71,-0.67,2.89
6.651,1.89,3.65,-0.78,4.19
6.661,2.91,4.15,-0.48,5.09
6.670,3.65,3.95,0.38,5.39
6.681,4.12,2.88,1.39,5.21
6.691,4.08,1.43,1.97,4.74
6.701,3.02,0.32,1.75,3.51
6.711,1.69,-0.28,0.95,1.96
6.720,0.66,-0.67,0.12,0.95
6.731,-0.25,-0.80,-0.48,0.96
6.741,-1.04,-0.85,-1.10,1.74
6.751,-1.69,-0.85,-1.66,2.52
6.760,-2.15,-0.86,-2.02,3.07
6.770,-2.44,-0.93,-2.02,3.31
6.780,-2.68,-1.18,-1.52,3.30
6.790,-2.81,-1.50,-0.53,3.22
6.801,-2.74,-1.84,0.59,3.35
6.810,-2.45,-2.37,1.27,3.64
6.820,-1.93,-2.91,1.28,3.71
6.830,-1.40,-3.39,0.84,3.76
6.840,-0.88,-3.75,-0.01,3.85
6.850,-0.35,-4.00,-1.17,4.18
6.860,0.17,-4.12,-2.24,4.70
6.870,0.59,-3.97,-2.93,4.97
6.880,0.80,-3.68,-3.23,4.97
6.890,0.85,-3.41,-3.36,4.86
6.900,0.83,-3.01,-3.42,4.63
6.910,0.86,-2.41,-3.44,4.29
6.920,1.06,-1.62,-3.37,3.89
6.930,1.35,-0.63,-3.09,3.43
6.940,1.70,0.65,-2.53,3.12
6.950,2.14,2.32,-1.84,3.65
6.960,2.50,4.23,-1.05,5.03
6.970,2.62,6.58,0.17,7.09
6.980,2.43,9.37,1.41,9.78
6.990,1.97,11.87,2.33,12.26
7.001,1.55,13.24,3.00,13.66
7.011,2.10,12.48,3.23,13.07
7.020,3.55,8.75,2.93,9.89
7.030,3.81,4.67,2.21,6.42
7.040,2.87,2.36,1.46,4.00
7.050,1.41,1.74,0.46,2.29
7.060,-0.72,2.25,-0.35,2.39
7.070,-2.93,3.35,-1.04,4.57
7.080,-4.44,4.42,-1.63,6.47
7.090,-4.83,4.91,-1.53,7.06
7.100,-4.39,4.21,-1.79,6.34
7.110,-3.39,2.61,-2.06,4.74
7.120,-2.56,0.92,-1.41,3.06
7.130,-1.99,-0.52,-0.61,2.15
7.140,-1.44,-1.76,-0.10,2.28
7.150,-0.99,-2.97,0.21,3.13
7.160,-0.65,-4.01,0.28,4.07
7.170,-0.43,-4.87,0.24,4.89
7.180,-0.47,-5.67,0.31,5.70
7.190,-0.82,-6.48,0.62,6.56
7.200,-1.30,-7.13,0.90,7.30
7.210,-1.76,-7.42,1.10,7.71
7.220,-1.80,-6.86,1.27,7.20
7.230,-1.04,-5.33,1.37,5.60
7.240,-0.21,-4.17,1.09,4.31
7.250,0.17,-3.59,0.64,3.65
7.260,0.39,-2.48,0.17,2.52
7.270,0.51,-1.20,-0.36,1.35
7.280,0.67,0.36,-1.10,1.34
7.290,1.17,2.56,-1.68,3.28
7.300,2.14,4.66,-2.06,5.53
7.310,3.18,5.71,-2.00,6.84
7.319,3.46,5.45,-1.17,6.56
7.330,2.51,3.78,0.19,4.54
7.340,1.19,2.03,1.81,2.97
7.350,0.24,0.35,3.20,3.23
7.360,-0.27,-1.19,3.64,3.84
7.369,-0.34,-2.42,2.73,3.67
7.380,-0.45,-3.34,1.21,3.58
7.390,-0.85,-3.79,-0.04,3.89
7.400,-1.39,-3.66,-1.06,4.05
7.410,-1.74,-2.97,-1.77,3.87
7.419,-1.83,-2.33,-1.98,3.56
7.430,-1.60,-2.27,-1.59,3.20
7.440,-1.08,-2.42,-0.88,2.79
7.450,-0.71,-2.29,-0.02,2.40
7.459,-0.60,-2.17,0.78,2.38
7.469,-0.76,-2.23,1.27,2.68
7.480,-0.87,-2.40,1.07,2.77
7.489,-0.74,-2.42,0.35,2.55
7.500,-0.47,-2.44,-0.62,2.56
7.509,-0.14,-2.70,-1.55,3.11
7.519,0.27,-3.02,-2.33,3.83
7.530,0.84,-3.22,-2.98,4.47
7.539,1.52,-3.26,-3.45,4.99
7.549,2.17,-3.10,-3.64,5.25
7.559,2.97,-2.59,-3.27,5.12
7.569,4.18,-1.54,-2.03,4.90
7.579,5.51,0.36,-0.07,5.52
7.589,6.21,3.90,2.29,7.68
7.599,5.28,9.48,3.09,11.28
7.609,2.61,13.56,1.94,13.94
7.620,1.16,14.40,0.28,14.45
7.629,-0.09,15.24,-0.17,15.25
7.641,-3.29,12.90,1.32,13.38
7.649,-3.83,8.38,0.97,9.26
7.659,-1.22,4.42,1.17,4.73
7.669,1.04,2.58,1.38,3.11
7.679,1.85,0.39,0.25,1.90
7.689,2.08,-1.75,-1.50,3.11
7.699,2.37,-3.46,-3.12,5.23
7.709,2.54,-4.79,-3.43,6.41
7.719,1.93,-5.09,-1.84,5.75
7.729,0.67,-4.55,-0.04,4.60
7.739,-0.89,-4.43,0.80,4.58
7.749,-2.05,-4.87,0.84,5.35
7.759,-2.76,-5.12,0.65,5.85
7.769,-3.23,-5.05,0.40,6.01
7.779,-3.76,-4.85,0.22,6.14
7.789,-4.54,-4.56,0.13,6.44
7.799,-5.52,-4.15,0.03,6.91
7.809,-6.41,-3.48,0.09,7.29
7.819,-6.95,-2.48,0.36,7.39
7.829,-6.86,-1.26,0.68,7.01
7.839,-5.88,-0.45,0.87,5.96
7.849,-3.97,-0.73,0.69,4.09
7.859,-2.01,-0.86,0.02,2.18
7.869,-0.39,-0.34,-0.71,0.88
7.879,0.66,0.61,-1.12,1.44
7.889,1.35,1.71,-1.28,2.53
7.899,1.89,2.63,-1.17,3.45
7.909,2.36,3.16,-0.48,3.98
7.919,2.79,2.87,0.52,4.04
7.929,3.02,1.94,1.30,3.82
7.939,2.78,1.17,1.57,3.40
7.949,2.06,0.87,1.45,2.66
7.959,1.35,0.75,1.05,1.87
7.969,0.65,0.73,0.36,1.04
7.979,-0.04,0.61,-0.30,0.68
7.989,-0.68,0.27,-0.72,1.03
7.999,-1.22,-0.24,-1.04,1.62
8.009,-1.65,-0.71,-1.25,2.19
8.019,-1.97,-1.06,-1.26,2.57
8.029,-2.30,-1.49,-1.10,2.95
8.039,-2.44,-2.00,-0.70,3.23
8.049,-2.38,-2.50,-0.02,3.45
8.059,-2.15,-2.90,0.64,3.67
8.068,-1.78,-3.18,0.80,3.73
8.079,-1.41,-3.44,0.41,3.74
8.088,-1.05,-3.63,-0.30,3.79
8.098,-0.68,-3.67,-1.17,3.91
8.108,-0.23,-3.57,-2.03,4.11
8.118,0.23,-3.12,-2.69,4.13
8.129,0.41,-2.64,-2.97,3.99
8.139,0.32,-2.26,-2.90,3.69
8.149,0.21,-1.87,-2.76,3.34
8.158,0.22,-1.41,-2.63,2.99
8.168,0.33,-0.87,-2.50,2.67
8.178,0.50,-0.13,-2.23,2.29
8.188,0.68,0.84,-1.81,2.11
8.199,0.83,1.99,-1.30,2.52
8.208,0.84,3.39,-0.81,3.58
8.218,0.59,5.06,-0.34,5.11
8.228,-0.05,6.99,0.12,6.99
8.238,-0.87,8.80,1.18,8.92
8.248,-1.36,10.02,2.58,10.43
8.259,-0.47,10.09,2.88,10.51
8.268,1.82,7.88,2.30,8.41
8.278,3.47,5.04,1.45,6.29
8.288,3.39,3.01,0.53,4.57
8.298,1.84,1.97,-0.39,2.72
8.308,-0.40,1.87,-1.19,2.25
8.318,-2.38,2.33,-1.68,3.73
8.328,-3.73,3.37,-2.23,5.50
8.338,-4.18,4.48,-2.33,6.56
8.348,-3.48,4.74,-1.39,6.05
8.358,-2.42,3.89,-1.01,4.69
8.368,-1.86,2.61,-0.78,3.30
8.378,-1.54,1.52,-0.46,2.21
8.388,-1.34,0.62,-0.11,1.48
8.398,-1.24,-0.26,0.17,1.28
8.408,-0.96,-1.45,0.42,1.79
8.418,-0.56,-2.69,0.62,2.82
8.428,-0.22,-3.82,0.95,3.95
8.438,-0.02,-4.76,1.36,4.95
8.448,0.05,-5.53,1.78,5.81
8.458,-0.07,-6.17,2.05,6.50
8.468,-0.27,-6.75,2.02,7.05
8.478,-0.32,-7.06,1.40,7.21
8.488,-0.10,-7.00,0.28,7.00
8.498,0.13,-6.68,-0.70,6.72
8.508,0.31,-6.12,-1.29,6.26
8.518,0.50,-5.19,-1.78,5.51
8.528,0.66,-3.84,-2.23,4.49
8.538,0.75,-2.03,-2.34,3.19
8.548,1.08,0.32,-2.32,2.58
8.558,1.66,3.02,-2.20,4.09
8.568,2.20,5.46,-2.10,6.25
8.578,2.99,7.88,-1.48,8.56
8.588,3.95,9.11,0.41,9.93
8.598,3.56,6.62,2.44,7.90
8.608,1.83,3.25,3.95,5.43
8.618,0.40,1.19,4.76,4.92
8.628,-0.36,-0.47,4.19,4.23
8.638,-0.50,-1.62,2.75,3.23
8.648,-0.59,-2.40,1.25,2.77
8.658,-0.82,-2.85,-0.02,2.96
8.668,-1.17,-3.02,-0.93,3.37
8.678,-1.55,-3.03,-1.38,3.67
8.687,-1.76,-2.84,-1.53,3.68
8.698,-1.68,-2.54,-1.33,3.32
8.708,-1.30,-2.36,-0.79,2.81
8.718,-0.81,-2.29,-0.00,2.43
8.728,-0.42,-2.11,0.63,2.24
8.737,-0.31,-1.82,1.05,2.12
8.748,-0.28,-1.63,1.17,2.02
8.758,-0.11,-1.60,0.95,1.87
8.768,0.22,-1.80,0.64,1.92
8.778,0.51,-2.11,0.39,2.20
8.787,0.66,-2.37,0.19,2.47
8.797,0.62,-2.62,-0.06,2.69
8.808,0.51,-2.80,-0.44,2.88
8.818,0.37,-3.02,-0.96,3.19
8.827,0.23,-3.26,-1.50,3.59
8.837,0.15,-3.44,-1.97,3.97
8.848,0.17,-3.42,-2.32,4.14
8.857,0.29,-3.03,-2.53,3.96
8.867,0.49,-2.23,-2.64,3.49
8.878,0.71,-1.18,-2.53,2.88
8.887,1.13,0.09,-1.93,2.23
8.898,1.92,1.36,-0.96,2.54
8.907,2.69,3.50,0.81,4.49
8.917,2.75,7.36,2.62,8.28
8.927,2.24,11.34,1.84,11.70
8.937,1.45,13.04,0.10,13.12
8.948,0.90,13.14,-1.03,13.21
8.958,-0.28,12.40,-1.07,12.45
8.968,-1.73,10.09,-0.85,10.27
8.977,-1.35,6.31,-1.36,6.60
8.987,0.57,3.55,-1.03,3.74
8.997,2.54,1.84,-0.64,3.20
9.007,3.52,0.04,-1.01,3.67
9.017,3.81,-1.46,-1.37,4.31
9.027,3.64,-2.44,-1.51,4.64
9.037,2.90,-3.18,-1.32,4.50
9.047,1.66,-3.59,-0.51,3.99
9.057,0.42,-3.15,0.58,3.23
9.067,-0.38,-2.51,1.33,2.86
9.077,-0.81,-2.32,1.26,2.76
9.087,-1.08,-2.07,0.81,2.48
9.097,-1.23,-1.77,0.48,2.21
9.107,-1.41,-1.73,0.25,2.25
9.117,-1.74,-2.14,0.15,2.76
9.127,-2.27,-2.85,0.30,3.65
9.137,-2.88,-3.65,0.55,4.69
9.147,-3.62,-4.47,0.82,5.81
9.157,-4.45,-4.96,1.05,6.75
9.167,-5.21,-4.79,0.87,7.13
9.177,-5.70,-3.94,0.11,6.93
9.187,-5.76,-2.77,-1.03,6.47
9.197,-5.30,-1.64,-2.21,5.97
9.207,-3.92,-0.77,-2.49,4.70
9.217,-1.98,0.20,-1.81,2.69
9.227,-0.23,1.19,-0.99,1.57
9.237,1.08,2.04,-0.32,2.33
9.247,2.05,2.98,0.35,3.63
9.257,2.64,3.59,0.77,4.52
9.267,2.92,3.46,1.14,4.67
9.277,2.93,2.52,1.51,4.15
9.287,2.47,1.26,1.50,3.16
9.297,2.00,0.03,1.07,2.27
9.307,1.46,-1.12,0.23,1.86
9.317,0.82,-1.94,-0.66,2.21
9.327,0.10,-2.33,-1.23,2.64
9.337,-0.67,-2.54,-1.57,3.06
9.347,-1.31,-2.60,-1.87,3.46
9.357,-1.81,-2.55,-2.04,3.73
9.367,-2.14,-2.46,-1.96,3.80
9.377,-2.28,-2.39,-1.54,3.65
9.386,-2.23,-2.36,-0.70,3.32
9.397,-1.96,-2.20,0.40,2.98
9.407,-1.60,-2.14,1.14,2.90
9.417,-1.19,-2.11,1.16,2.68
9.426,-0.86,-2.00,0.58,2.25
9.436,-0.63,-1.81,-0.32,1.95
9.447,-0.47,-1.61,-1.32,2.13
9.457,-0.25,-1.42,-2.22,2.64
9.466,0.04,-1.19,-2.87,3.11
9.476,0.23,-0.97,-3.12,3.28
9.486,0.17,-0.75,-3.01,3.10
9.496,-0.04,-0.33,-2.85,2.87
9.506,-0.16,0.24,-2.70,2.72
9.517,0.02,0.79,-2.30,2.43
9.527,0.44,1.30,-1.63,2.13
9.536,0.88,1.93,-0.95,2.33
9.546,1.19,2.73,-0.48,3.02
9.557,1.24,3.65,-0.17,3.86
9.566,0.92,4.63,0.27,4.73
9.577,0.12,5.57,0.70,5.61
9.586,-0.67,6.27,1.38,6.46
9.596,-0.96,6.83,2.28,7.27
9.606,-0.31,7.35,2.47,7.76
9.616,1.46,7.05,2.09,7.50
9.626,2.95,5.69,1.25,6.53
9.636,3.12,4.38,0.52,5.40
9.646,1.94,3.50,-0.09,4.00
9.656,-0.01,3.65,-0.19,3.66
9.666,-1.90,4.52,0.12,4.90
9.676,-3.14,5.40,0.04,6.25
9.686,-3.48,5.74,-0.43,6.72
9.696,-2.97,4.98,-0.81,5.85
9.706,-2.39,3.36,-0.98,4.24
9.716,-2.05,1.70,-0.85,2.80
9.726,-1.89,0.36,-0.45,1.97
9.736,-1.65,-0.80,0.01,1.83
9.746,-1.33,-2.03,0.46,2.47
9.756,-1.06,-3.27,0.70,3.51
9.766,-0.91,-4.33,0.63,4.47
9.776,-0.91,-5.18,0.48,5.28
9.786,-1.14,-5.89,0.42,6.01
9.796,-1.56,-6.60,0.42,6.80
9.806,-1.92,-7.40,0.36,7.65
9.816,-1.92,-8.01,0.44,8.25
9.826,-1.21,-7.96,0.45,8.06
9.836,-0.27,-6.85,0.36,6.86
9.846,0.38,-5.48,-0.06,5.49
9.856,0.74,-3.94,-0.35,4.03
9.866,1.04,-2.53,-0.73,2.83
9.876,1.51,-0.85,-1.03,2.02
9.886,2.01,0.84,-1.28,2.53
9.896,2.81,3.32,-1.44,4.58
9.906,3.98,6.08,-1.42,7.40
9.916,5.10,7.82,-1.01,9.39
9.926,5.20,6.94,0.07,8.67
9.936,3.43,3.91,1.14,5.33
9.946,1.27,1.53,2.38,3.10
9.956,-0.25,0.02,3.01,3.02
9.966,-1.02,-1.21,2.60,3.05
9.976,-1.28,-2.41,1.45,3.09
9.986,-1.49,-3.52,0.30,3.83
9.996,-1.82,-4.25,-0.44,4.64
10.006,-2.15,-4.34,-0.94,4.93
10.016,-2.26,-3.87,-1.42,4.70
10.026,-2.06,-3.24,-1.62,4.17
10.036,-1.56,-2.79,-1.27,3.44
10.046,-0.88,-2.47,-0.66,2.70
10.056,-0.34,-2.03,0.01,2.05
10.066,-0.08,-1.64,0.57,1.74
10.076,-0.01,-1.47,1.14,1.86
10.086,0.17,-1.46,1.43,2.05
10.096,0.52,-1.54,1.22,2.03
10.106,0.77,-1.61,0.60,1.88
10.116,0.80,-1.88,-0.24,2.06
10.126,0.83,-2.45,-1.04,2.79
10.136,0.81,-3.05,-1.80,3.64
10.146,0.71,-3.48,-2.47,4.32
10.155,0.63,-3.79,-3.01,4.88
10.166,0.71,-3.91,-3.46,5.27
10.176,0.96,-3.84,-3.80,5.49
10.186,1.32,-3.44,-3.86,5.34
10.195,1.78,-2.56,-3.31,4.55
10.206,2.61,-1.03,-1.73,3.30
10.216,3.84,0.69,-0.22,3.91
10.225,4.75,3.15,2.20,6.11
10.235,4.39,7.90,3.90,9.84
10.245,2.49,12.28,2.21,12.72
10.255,0.42,13.47,-0.34,13.48
10.266,-0.61,14.62,-2.00,14.77
10.277,-2.76,14.11,-1.15,14.42
10.286,-3.49,10.25,-0.20,10.83
10.295,-1.15,5.09,0.35,5.23
10.305,1.94,2.53,1.05,3.36
10.315,3.45,0.75,0.80,3.62
10.325,3.84,-0.94,-0.33,3.97
10.335,3.72,-2.11,-1.75,4.62
10.345,3.24,-3.12,-2.48,5.14
10.355,2.18,-3.65,-1.65,4.56
10.365,0.78,-3.03,-0.13,3.14
10.375,-0.59,-2.28,0.93,2.54
10.385,-1.78,-2.56,1.23,3.35
10.395,-2.59,-2.94,1.04,4.05
10.405,-2.97,-2.91,0.74,4.22
10.415,-3.16,-2.54,0.43,4.08
10.425,-3.60,-2.25,0.29,4.26
10.435,-4.42,-2.20,0.53,4.97
10.445,-5.46,-2.36,1.21,6.07
10.455,-6.49,-2.55,2.02,7.26
10.465,-7.14,-2.61,2.52,8.01
10.475,-7.03,-2.62,2.39,7.87
10.485,-5.87,-2.93,1.76,6.79
10.495,-4.09,-2.99,0.76,5.12
10.505,-2.36,-2.27,-0.43,3.31
10.515,-1.07,-0.94,-1.16,1.84
10.525,-0.29,0.67,-1.45,1.63
10.535,0.26,2.33,-1.60,2.84
10.545,0.93,3.72,-1.28,4.05
10.555,1.82,4.53,-0.36,4.90
10.565,2.80,4.39,0.68,5.25
10.575,3.51,3.10,1.49,4.92
10.585,3.43,1.21,1.87,4.09
10.595,2.61,-0.39,1.79,3.19
10.605,1.69,-1.66,1.28,2.70
10.615,0.77,-2.66,0.52,2.82
10.625,-0.20,-3.28,-0.29,3.30
10.635,-1.05,-3.48,-1.01,3.77
10.645,-1.60,-3.38,-1.51,4.04
10.655,-1.95,-3.14,-1.93,4.17
10.665,-2.16,-2.87,-2.26,4.25
10.675,-2.31,-2.76,-2.39,4.32
10.685,-2.36,-2.78,-2.08,4.19
10.695,-2.25,-2.77,-1.14,3.75
10.704,-1.91,-2.66,0.11,3.28
10.715,-1.47,-2.57,0.66,3.04
10.725,-1.07,-2.62,0.32,2.85
10.735,-0.75,-2.70,-0.37,2.83
10.745,-0.51,-2.69,-1.27,3.01
10.755,-0.35,-2.38,-2.12,3.21
10.765,-0.25,-1.97,-2.57,3.25
10.775,-0.22,-1.69,-2.51,3.04
10.785,-0.21,-1.54,-2.33,2.80
10.795,-0.16,-1.49,-2.21,2.67
10.804,-0.01,-1.48,-2.00,2.49
10.815,0.26,-1.43,-1.58,2.15
10.824,0.59,-1.14,-1.10,1.69
10.835,0.81,-0.49,-0.80,1.24
10.845,0.93,0.57,-0.87,1.39
10.854,0.95,2.13,-1.16,2.61
10.864,0.80,4.25,-1.37,4.53
10.875,0.46,6.90,-1.18,7.01
10.885,0.08,9.88,0.16,9.88
10.895,0.32,12.45,2.50,12.71
10.906,2.16,12.65,4.01,13.44
10.914,4.57,9.20,3.79,10.95
10.924,5.10,5.74,3.30,8.36
10.934,4.16,3.65,2.67,6.15
10.944,2.47,3.03,1.28,4.11
10.954,0.44,3.45,-0.24,3.49
10.965,-1.31,4.67,-1.44,5.06
10.975,-2.59,6.12,-2.27,7.02
10.985,-3.05,6.66,-2.38,7.70
10.994,-2.91,5.77,-1.87,6.72
11.004,-2.66,4.27,-1.84,5.36
11.014,-2.38,2.93,-1.50,4.05
11.024,-1.92,2.01,-0.97,2.94
11.034,-1.46,1.32,-0.61,2.06
11.044,-1.24,0.41,-0.27,1.33
11.054,-1.13,-0.82,0.06,1.39
11.064,-0.88,-2.03,0.36,2.24
11.075,-0.59,-3.15,0.64,3.27
11.084,-0.41,-4.16,1.01,4.30
11.094,-0.44,-5.02,1.56,5.27
11.104,-0.67,-5.69,1.91,6.04
11.114,-0.97,-6.29,1.79,6.61
11.124,-1.15,-6.79,1.04,6.96
11.134,-0.98,-7.24,-0.21,7.31
11.144,-0.60,-7.71,-1.25,7.84
11.154,-0.33,-7.64,-1.85,7.87
11.164,-0.19,-6.84,-2.24,7.20
11.175,-0.05,-5.80,-2.70,6.40
11.184,0.05,-4.47,-2.85,5.30
11.194,0.31,-2.73,-2.68,3.84
11.204,0.94,-0.28,-2.10,2.32
11.214,1.40,1.78,-1.27,2.59
11.224,1.60,3.94,-0.36,4.27
11.234,1.80,6.75,0.27,6.99
11.244,1.90,9.07,1.10,9.34
11.254,1.26,7.65,2.25,8.07
11.264,0.49,3.93,3.27,5.14
11.274,0.20,1.33,3.42,3.68
11.284,0.31,-0.62,2.60,2.69
11.294,0.50,-1.80,1.48,2.38
11.304,0.51,-2.26,0.36,2.35
11.314,0.26,-2.35,-0.51,2.42
11.324,-0.01,-2.39,-0.96,2.57
11.334,-0.22,-2.49,-1.08,2.72
11.344,-0.44,-2.56,-1.00,2.78
11.354,-0.62,-2.56,-0.81,2.75
11.364,-0.75,-2.33,-0.47,2.50
11.374,-0.84,-2.02,-0.08,2.19
11.384,-0.87,-1.84,0.17,2.05
11.394,-0.89,-1.83,0.33,2.07
11.404,-0.82,-1.82,0.46,2.05
11.414,-0.60,-1.89,0.49,2.04
11.424,-0.35,-2.15,0.50,2.23
11.434,-0.16,-2.62,0.50,2.67
11.444,0.10,-2.96,0.44,2.99
11.453,0.41,-3.22,0.21,3.25
11.464,0.64,-3.51,-0.19,3.57
11.474,0.71,-3.85,-0.81,4.00
11.484,0.66,-4.15,-1.51,4.47
11.494,0.59,-4.21,-2.21,4.79
11.503,0.64,-4.02,-2.78,4.93
11.514,0.76,-3.58,-3.12,4.81
11.524,1.00,-2.88,-3.26,4.46
11.534,1.34,-1.90,-3.23,3.98
11.544,1.83,-0.77,-2.63,3.30
11.553,2.63,0.38,-1.54,3.07
11.564,3.50,1.71,-0.09,3.90
11.573,3.85,4.56,1.67,6.20
11.584,3.06,8.86,2.02,9.59
11.594,1.07,12.07,0.40,12.13
11.603,-0.38,12.29,-0.73,12.32
11.614,-0.54,11.84,-1.07,11.90
11.624,-1.42,11.11,-0.44,11.21
11.633,-2.08,9.00,-0.39,9.24
11.643,-1.19,5.69,-0.39,5.83
11.653,0.79,3.66,0.40,3.76
11.663,2.44,2.24,0.14,3.31
11.673,3.14,1.23,-0.79,3.46
11.683,3.23,0.84,-1.55,3.68
11.693,2.83,0.62,-1.86,3.44
11.703,2.03,0.09,-1.58,2.58
11.713,1.05,-0.11,-0.34,1.11
11.723,0.16,0.06,0.92,0.94
11.733,-0.43,-0.22,1.42,1.49
11.743,-0.90,-1.00,1.42,1.95
11.753,-1.39,-1.85,1.19,2.60
11.763,-1.90,-2.62,1.13,3.43
11.773,-2.48,-3.39,1.30,4.40
11.783,-3.13,-4.08,1.48,5.35
11.793,-3.74,-4.70,1.63,6.22
11.803,-4.31,-5.19,1.71,6.96
11.813,-4.78,-5.39,1.61,7.38
11.823,-5.07,-5.15,1.17,7.32
11.833,-5.02,-4.47,0.37,6.73
11.843,-4.52,-3.32,-0.50,5.63
11.853,-3.77,-2.03,-1.07,4.41
11.863,-2.96,-0.73,-1.16,3.26
11.873,-2.04,0.50,-0.91,2.28
11.883,-1.04,1.49,-0.56,1.90
11.893,-0.09,2.17,-0.12,2.17
11.903,0.73,2.30,0.35,2.44
11.913,1.41,1.89,0.67,2.46
11.923,1.87,1.06,0.88,2.32
11.933,1.99,0.00,0.94,2.20
11.943,1.79,-0.97,0.79,2.19
11.953,1.47,-1.84,0.32,2.38
11.963,1.09,-2.42,-0.26,2.66
11.973,0.63,-2.55,-0.66,2.71
11.983,0.07,-2.50,-0.91,2.66
11.993,-0.44,-2.31,-1.16,2.62
12.003,-0.89,-2.08,-1.41,2.66
12.013,-1.23,-1.81,-1.49,2.65
12.023,-1.51,-1.56,-1.44,2.61
12.033,-1.67,-1.21,-1.35,2.46
12.043,-1.72,-0.74,-0.96,2.10
12.053,-1.76,-0.43,-0.14,1.82
12.063,-1.73,-0.43,0.76,1.94
12.073,-1.62,-0.85,1.23,2.21
12.083,-1.45,-1.39,1.05,2.27
12.093,-1.24,-1.84,0.60,2.30
12.103,-1.04,-2.01,0.04,2.27
12.113,-0.92,-1.99,-0.67,2.29
12.123,-0.70,-1.88,-1.37,2.43
12.133,-0.36,-1.73,-1.78,2.51
12.143,0.03,-1.57,-1.89,2.46
12.153,0.28,-1.52,-1.74,2.33
12.163,0.35,-1.65,-1.54,2.28
12.173,0.29,-1.78,-1.44,2.31
12.183,0.22,-1.82,-1.50,2.37
12.193,0.25,-1.83,-1.66,2.49
12.203,0.38,-1.75,-1.79,2.53
12.213,0.52,-1.50,-1.73,2.34
12.223,0.59,-1.07,-1.58,2.00
12.233,0.60,-0.43,-1.52,1.69
12.242,0.52,0.60,-1.46,1.66
12.252,0.34,2.10,-1.42,2.55
12.263,0.06,4.10,-1.42,4.34
12.272,-0.28,6.65,-1.15,6.76
12.282,-0.25,9.74,-0.03,9.74
12.292,0.89,12.36,1.26,12.46
12.303,3.31,12.51,2.10,13.11
12.312,4.89,9.15,2.57,10.69
12.322,4.50,5.69,2.75,7.76
12.332,2.83,3.96,2.50,5.47
12.342,0.40,4.27,1.46,4.53
12.352,-1.89,5.36,0.14,5.69
12.362,-3.31,6.30,-1.20,7.21
12.372,-3.86,6.81,-2.37,8.18
12.382,-3.80,6.40,-2.68,7.91
12.392,-3.62,4.83,-1.61,6.25
12.402,-3.25,2.98,-0.89,4.50
12.412,-2.43,1.81,-1.09,3.22
12.422,-1.61,1.11,-0.98,2.19
12.432,-1.05,0.25,-0.82,1.35
12.442,-0.78,-0.99,-0.55,1.38
12.452,-0.61,-2.21,-0.24,2.30
12.462,-0.38,-3.30,0.07,3.32
12.472,-0.03,-4.26,0.30,4.27
12.482,0.38,-5.24,0.57,5.28
12.492,0.74,-6.20,0.82,6.30
12.502,0.97,-6.97,1.05,7.11
12.512,1.08,-7.66,1.07,7.81
12.522,1.08,-8.44,0.63,8.53
12.532,0.96,-9.20,0.07,9.25
12.542,0.66,-9.51,-0.35,9.54
12.552,0.38,-8.60,-1.01,8.67
12.562,0.24,-6.44,-1.78,6.69
12.572,0.23,-3.78,-2.25,4.41
12.582,0.41,-1.14,-2.47,2.75
12.592,0.99,1.75,-2.50,3.20
12.602,1.70,4.18,-2.61,5.21
12.612,2.25,6.55,-2.32,7.30
12.622,2.91,9.54,-1.54,10.09
12.632,2.99,11.14,0.60,11.54
12.642,1.15,7.61,2.97,8.25
12.652,-0.22,3.41,4.53,5.67
12.662,-0.65,1.19,5.06,5.24
12.672,-0.49,-0.47,4.25,4.31
12.682,-0.06,-1.64,2.52,3.01
12.692,0.36,-2.30,0.62,2.41
12.702,0.66,-2.49,-0.67,2.66
12.712,0.76,-2.49,-1.19,2.86
12.722,0.79,-2.31,-1.41,2.82
12.732,0.62,-2.19,-1.55,2.76
12.742,0.25,-2.35,-1.42,2.75
12.752,-0.05,-2.63,-0.85,2.77
12.762,-0.06,-2.87,-0.14,2.87
12.772,0.05,-3.05,0.37,3.07
12.782,0.08,-3.06,0.65,3.13
12.792,0.09,-2.98,0.68,3.06
12.802,0.13,-2.70,0.59,2.76
12.812,0.19,-2.34,0.43,2.38
12.822,0.25,-2.34,0.22,2.36
12.832,0.29,-2.62,-0.05,2.64
12.842,0.37,-2.98,-0.39,3.03
12.852,0.43,-3.40,-0.79,3.51
12.861,0.47,-3.80,-1.25,4.03
12.872,0.53,-4.11,-1.74,4.49
12.882,0.66,-4.11,-2.23,4.72
12.892,0.83,-3.79,-2.65,4.70
12.902,1.02,-3.20,-3.04,4.53
12.912,1.20,-2.38,-3.30,4.24
12.921,1.42,-1.38,-3.11,3.69
12.931,1.87,0.03,-2.00,2.73
12.941,2.90,1.61,-0.84,3.42
12.952,3.97,3.73,0.67,5.49
12.962,3.79,7.83,2.46,9.04
12.971,2.24,11.88,1.52,12.19
12.982,-0.12,13.14,0.16,13.14
12.991,-1.77,13.64,-0.21,13.75
13.003,-3.72,13.21,-0.04,13.73
13.012,-4.38,9.81,-0.03,10.74
13.021,-2.00,5.00,0.01,5.38
13.032,0.66,2.96,0.68,3.11
13.041,1.98,1.78,0.54,2.71
13.051,2.66,0.34,-0.49,2.73
13.061,3.05,-0.84,-1.50,3.50
13.071,2.94,-2.02,-2.03,4.11
13.081,2.38,-3.00,-1.52,4.12
13.091,1.54,-3.07,-0.10,3.43
13.101,0.53,-2.37,1.22,2.71
13.111,-0.43,-2.32,1.57,2.83
13.121,-1.17,-2.74,1.29,3.24
13.131,-1.70,-3.08,0.86,3.62
13.141,-2.14,-3.25,0.57,3.93
13.151,-2.64,-3.44,0.36,4.35
13.161,-3.33,-3.58,0.36,4.90
13.171,-4.23,-3.61,0.55,5.59
13.181,-5.32,-3.41,0.82,6.37
13.191,-6.28,-2.89,1.07,7.00
13.201,-6.80,-2.05,1.06,7.18
13.211,-6.74,-1.36,0.65,6.91
13.221,-5.71,-1.51,0.28,5.92
13.231,-4.10,-1.81,0.27,4.49
13.241,-2.69,-1.34,0.29,3.02
13.251,-1.61,-0.25,0.18,1.64
13.261,-0.68,1.12,-0.15,1.32
13.271,0.27,2.35,-0.47,2.41
13.281,1.17,3.00,-0.43,3.25
13.291,2.00,2.98,0.11,3.59
13.301,2.61,2.27,0.74,3.53
13.311,2.75,1.02,1.20,3.17
13.321,2.44,-0.41,1.16,2.73
13.331,1.80,-1.65,0.53,2.50
13.341,1.08,-2.64,-0.25,2.86
13.351,0.36,-3.27,-0.96,3.43
13.361,-0.33,-3.63,-1.46,3.92
13.371,-0.94,-3.73,-1.83,4.26
13.381,-1.42,-3.48,-2.14,4.33
13.391,-1.76,-2.99,-2.16,4.09
13.401,-2.09,-2.48,-1.77,3.69
13.411,-2.33,-2.01,-1.06,3.25
13.421,-2.39,-1.55,-0.24,2.86
13.431,-2.25,-1.10,0.44,2.54
13.441,-1.90,-0.72,0.81,2.19
13.451,-1.34,-0.43,0.72,1.58
13.461,-0.68,-0.24,0.36,0.80
13.471,0.02,-0.21,-0.25,0.32
13.481,0.59,-0.44,-1.12,1.34
13.490,0.90,-0.80,-1.99,2.33
13.501,1.03,-1.03,-2.46,2.86
13.511,0.95,-1.10,-2.35,2.77
13.521,0.71,-1.18,-1.96,2.40
13.531,0.43,-1.24,-1.71,2.15
13.540,0.24,-1.16,-1.63,2.01
13.551,0.16,-0.99,-1.58,1.87
13.560,0.21,-0.87,-1.48,1.73
13.571,0.39,-0.89,-1.37,1.68
13.581,0.63,-0.86,-1.23,1.62
13.590,0.83,-0.61,-1.08,1.50
13.601,0.96,-0.11,-0.85,1.28
13.610,0.95,0.72,-0.63,1.35
13.620,0.88,1.88,-0.56,2.15
13.630,0.70,3.37,-0.73,3.52
13.641,0.44,5.15,-1.35,5.35
13.650,0.20,7.01,-1.76,7.23
13.660,0.26,8.60,-1.30,8.70
13.671,0.93,8.77,-0.22,8.82
13.680,2.02,6.81,0.54,7.12
13.690,2.78,4.34,1.00,5.25
13.700,2.63,2.97,1.24,4.16
13.710,1.41,2.97,1.18,3.49
13.720,-0.31,3.74,0.60,3.80
13.730,-1.97,4.62,-0.37,5.04
13.740,-3.07,5.71,-1.11,6.58
13.750,-3.45,6.87,-1.26,7.79
13.760,-3.68,7.01,-0.29,7.93
13.770,-3.86,6.26,0.48,7.37
13.780,-3.89,5.60,0.15,6.82
13.790,-3.94,4.83,-0.06,6.23
13.800,-3.70,3.80,-0.35,5.31
13.810,-3.14,2.36,-0.47,3.96
13.820,-2.48,0.69,-0.28,2.59
13.830,-1.90,-0.95,-0.05,2.13
13.840,-1.33,-2.42,0.13,2.77
13.850,-0.72,-3.80,0.25,3.87
13.860,-0.16,-4.97,0.25,4.97
13.870,0.31,-6.03,0.22,6.04
13.880,0.58,-6.92,0.18,6.95
13.890,0.71,-7.73,-0.24,7.77
13.900,0.81,-8.76,-1.11,8.86
13.910,0.77,-9.93,-1.93,10.14
13.920,0.62,-10.86,-2.24,11.10
13.930,0.64,-10.96,-2.30,11.22
13.940,0.76,-9.45,-2.03,9.69
13.950,1.06,-6.88,-2.28,7.33
13.960,1.49,-4.11,-2.63,5.10
13.970,2.01,-1.55,-2.64,3.66
13.980,2.42,1.07,-2.42,3.59
13.990,2.70,3.85,-1.65,4.99
14.000,2.93,7.75,-1.48,8.42
14.010,3.52,13.36,-1.98,13.96
14.020,3.14,15.86,0.01,16.17
14.030,1.13,8.99,3.36,9.67
14.040,0.15,1.79,4.54,4.88
14.050,-0.06,-1.48,4.25,4.50
14.060,0.21,-3.07,3.20,4.44
14.070,0.44,-3.86,1.46,4.15
14.080,0.39,-3.89,0.11,3.91
14.090,0.28,-3.35,-0.52,3.40
14.100,0.18,-2.63,-1.46,3.02
14.110,-0.10,-2.17,-2.26,3.13
14.120,-0.48,-2.15,-2.76,3.53
14.130,-0.59,-2.42,-2.64,3.63
14.140,-0.21,-2.73,-2.07,3.43
14.150,0.33,-3.02,-1.23,3.28
14.160,0.52,-3.32,-0.26,3.37
14.170,0.47,-3.46,0.67,3.55
14.180,0.52,-3.38,1.27,3.64
14.190,0.64,-3.12,1.64,3.58
14.200,0.70,-2.99,1.70,3.50
14.210,0.63,-3.12,1.24,3.42
14.219,0.63,-3.31,0.47,3.40
14.230,0.77,-3.50,-0.50,3.62
14.240,0.91,-3.68,-1.48,4.07
14.250,0.98,-3.70,-2.31,4.47
14.260,1.11,-3.38,-3.09,4.71
14.270,1.40,-2.72,-3.88,4.94
14.280,1.70,-1.71,-4.43,5.04
14.289,1.93,-0.39,-4.68,5.08
14.299,2.23,1.28,-4.60,5.27
14.309,2.71,3.18,-3.73,5.60
14.319,3.45,5.25,-1.20,6.40
14.329,4.53,7.61,1.82,9.04
14.339,5.71,9.96,4.10,12.19
14.349,5.73,11.18,4.90,13.48
14.360,3.63,11.72,3.50,12.76
14.371,0.45,13.36,1.55,13.46
14.380,-3.66,14.14,-0.15,14.61
14.391,-6.62,12.37,-1.56,14.11
14.399,-6.12,7.24,-0.82,9.52
14.410,-2.26,2.43,-0.15,3.32
14.419,0.50,-0.78,-0.25,0.96
14.429,1.65,-3.22,-0.62,3.67
14.439,1.96,-4.88,-1.13,5.38
14.449,1.19,-6.00,-1.48,6.29
14.460,-0.27,-6.30,-1.26,6.43
14.469,-1.81,-5.61,-0.75,5.94
14.479,-3.06,-5.51,-0.01,6.31
14.490,-4.01,-6.22,0.90,7.45
14.499,-4.40,-6.35,1.78,7.93
14.509,-4.35,-5.77,2.28,7.58
14.519,-4.16,-4.85,2.46,6.85
14.529,-4.10,-3.74,2.44,6.06
14.539,-4.21,-2.54,2.40,5.47
14.549,-4.29,-1.21,2.38,5.05
14.559,-4.07,0.11,2.24,4.65
14.569,-3.57,1.42,2.03,4.35
14.579,-2.72,2.52,1.67,4.07
14.589,-1.60,2.78,0.91,3.34
14.599,-0.39,2.14,-0.20,2.18
14.609,0.54,1.19,-1.13,1.73
14.619,0.95,0.23,-1.59,1.87
14.629,1.07,-0.76,-1.69,2.13
14.639,1.18,-1.64,-1.58,2.57
14.649,1.32,-2.26,-1.29,2.92
14.659,1.33,-2.49,-0.76,2.92
14.669,1.19,-2.18,-0.13,2.48
14.679,1.02,-1.61,0.60,2.00
14.689,1.00,-1.08,1.13,1.86
14.699,1.04,-0.69,1.25,1.77
14.709,0.94,-0.35,1.07,1.47
14.719,0.62,-0.12,0.66,0.91
14.729,0.05,-0.09,0.21,0.24
14.739,-0.69,-0.14,-0.10,0.71
14.749,-1.33,-0.12,-0.20,1.35
14.759,-1.83,-0.14,-0.04,1.84
14.769,-2.17,-0.19,0.30,2.20
14.779,-2.27,-0.32,0.61,2.37
14.789,-2.13,-0.52,0.69,2.29
14.799,-1.87,-0.82,0.61,2.13
14.809,-1.60,-1.06,0.48,1.98
14.819,-1.35,-1.15,0.25,1.79
14.829,-1.06,-1.13,-0.01,1.55
14.839,-0.76,-1.02,-0.21,1.29
14.849,-0.50,-1.02,-0.48,1.23
14.859,-0.33,-1.10,-0.79,1.39
14.869,-0.25,-1.27,-1.05,1.66
14.879,-0.26,-1.50,-1.27,1.98
14.889,-0.35,-1.68,-1.32,2.17
14.899,-0.36,-1.77,-1.30,2.23
14.909,-0.27,-1.79,-1.25,2.20
14.918,-0.08,-1.69,-1.28,2.12
14.929,0.11,-1.55,-1.51,2.17
14.939,0.28,-1.44,-1.88,2.38
14.949,0.46,-1.23,-2.24,2.60
14.959,0.58,-0.84,-2.40,2.61
14.969,0.65,-0.31,-2.59,2.69
14.978,0.71,0.13,-2.75,2.84
14.989,0.81,0.49,-2.78,2.94
14.998,1.06,0.72,-2.78,3.06
15.009,1.44,0.79,-2.76,3.21
15.019,1.91,0.60,-2.75,3.40
15.028,2.34,0.29,-2.86,3.71
15.038,2.64,0.04,-3.07,4.05
15.048,2.83,-0.13,-3.30,4.35
15.058,3.03,-0.17,-3.45,4.59
15.069,3.22,-0.22,-3.53,4.78
15.078,3.34,-0.40,-3.65,4.96
15.089,3.46,-0.66,-3.83,5.20
15.098,3.57,-0.89,-3.91,5.38
15.108,3.65,-1.10,-3.81,5.39
15.118,3.72,-1.15,-3.45,5.20
15.128,3.93,-0.73,-2.57,4.75
15.138,4.31,0.21,-0.86,4.40
15.148,4.39,0.96,1.20,4.65
15.158,3.86,1.17,2.11,4.55
15.168,3.40,1.71,1.95,4.28
15.178,3.34,2.86,1.43,4.62
15.188,3.26,4.34,1.12,5.54
15.198,1.81,4.77,0.79,5.16
15.208,-0.25,4.07,0.48,4.11
15.218,-1.56,3.53,1.03,4.00
15.228,-2.68,2.97,1.84,4.41
15.238,-3.84,2.10,2.10,4.86
15.248,-5.03,0.96,1.81,5.44
15.258,-6.25,-0.76,1.26,6.42
15.268,-7.04,-2.90,0.77,7.66
15.278,-7.12,-5.02,0.82,8.75
15.288,-5.95,-6.35,1.27,8.80
15.298,-4.20,-6.01,1.81,7.55
15.308,-2.87,-5.35,1.97,6.38
15.318,-1.52,-4.58,1.98,5.21
15.328,0.24,-2.88,1.74,3.38
15.338,2.39,0.50,1.60,2.92
15.348,3.80,5.88,1.40,7.14
15.358,5.59,11.15,-1.06,12.52
15.368,8.76,14.85,-1.81,17.33
15.378,11.92,15.54,2.03,19.69
15.388,13.17,10.41,7.01,18.19
15.398,10.58,2.46,7.69,13.31
15.408,6.43,-1.93,5.94,8.96
15.418,3.58,-3.24,4.13,6.35
15.428,1.77,-4.15,2.92,5.37
15.438,0.54,-5.14,1.76,5.46
15.448,-0.20,-5.41,0.57,5.45
15.458,-0.48,-4.82,-0.87,4.92
15.468,-0.66,-3.78,-1.70,4.20
15.478,-1.02,-2.89,-1.82,3.56
15.488,-1.41,-2.27,-1.89,3.28
15.498,-1.67,-1.70,-2.05,3.14
15.508,-1.70,-1.12,-2.25,3.04
15.518,-1.47,-0.88,-2.37,2.92
15.528,-1.06,-1.21,-2.01,2.57
15.537,-0.36,-1.81,-1.16,2.18
15.548,0.53,-2.36,-0.19,2.43
15.558,1.34,-2.71,0.65,3.09
15.568,2.13,-2.72,1.38,3.72
15.578,2.88,-2.24,2.02,4.17
15.588,3.44,-1.66,2.25,4.43
15.598,3.78,-1.32,1.84,4.41
15.607,3.96,-1.19,1.11,4.28
15.618,3.97,-0.96,0.60,4.13
15.627,3.83,-0.65,0.34,3.90
15.638,3.67,-0.56,0.11,3.71
15.647,3.53,-0.68,-0.38,3.61
15.657,3.24,-0.82,-1.22,3.55
15.668,2.73,-1.02,-2.21,3.65
15.678,1.95,-1.18,-2.75,3.57
15.688,1.07,-1.14,-2.96,3.35
15.698,0.52,-0.78,-3.05,3.19
15.707,0.59,0.03,-2.95,3.01
15.717,0.78,0.93,-2.38,2.67
15.728,0.55,1.96,-1.34,2.44
15.737,0.09,3.86,0.07,3.87
15.747,-0.95,6.92,1.54,7.15
15.757,-2.44,10.02,2.74,10.67
15.768,-3.17,10.60,4.42,11.91
15.777,-1.77,6.72,5.84,9.07
15.787,-0.04,2.04,5.68,6.04
15.797,0.66,-1.16,5.09,5.27
15.807,0.83,-2.48,4.45,5.16
15.817,1.30,-2.13,3.78,4.53
15.827,1.66,-1.70,3.37,4.12
15.837,1.61,-1.55,2.80,3.58
15.847,1.13,-1.02,1.97,2.49
15.857,0.33,-0.35,1.33,1.42
15.867,-1.07,0.02,0.86,1.37
15.877,-3.27,0.27,0.14,3.28
15.887,-5.98,0.41,-0.54,6.02
15.897,-8.13,0.83,-0.98,8.23
15.907,-9.90,1.81,-1.32,10.15
15.917,-10.01,2.53,-0.96,10.37
15.927,-8.60,2.08,0.45,8.86
15.937,-6.06,0.52,2.17,6.45
15.947,-3.03,-0.62,2.55,4.02
15.957,-1.18,-1.53,1.14,2.24
15.967,0.05,-2.05,-1.33,2.45
15.977,1.08,-1.78,-3.54,4.10
15.987,1.95,-1.09,-4.78,5.28
15.997,2.77,-0.49,-4.77,5.54
16.007,3.39,-0.30,-3.63,4.97
16.017,3.67,-0.27,-1.78,4.09
16.027,3.62,-0.18,-0.66,3.68
16.037,3.11,-0.02,-0.46,3.14
16.047,2.42,0.26,-0.45,2.47
16.057,1.83,0.46,-0.27,1.91
16.067,1.15,0.64,0.06,1.32
16.077,0.31,1.08,0.74,1.35
16.087,-0.81,1.36,1.87,2.45
16.097,-1.82,0.98,2.56,3.29
16.107,-2.14,-0.04,2.05,2.97
16.117,-1.49,-1.11,1.05,2.13
16.127,-0.49,-2.21,0.17,2.27
16.137,0.35,-3.29,-0.89,3.43
16.147,0.98,-3.98,-2.39,4.74
16.157,1.31,-4.16,-4.03,5.94
16.167,1.46,-3.95,-5.41,6.85
16.177,1.57,-3.47,-6.03,7.13
16.187,1.77,-2.72,-5.68,6.55
16.197,2.13,-1.86,-4.63,5.42
16.207,2.58,-1.02,-3.45,4.42
16.217,2.95,-0.15,-2.36,3.78
16.227,3.19,0.89,-1.29,3.56
16.237,3.38,2.17,-0.48,4.04
16.247,3.69,3.76,-0.09,5.27
16.257,4.19,5.52,0.25,6.94
16.267,4.70,7.48,1.09,8.90
16.277,4.76,9.37,2.45,10.79
16.287,4.16,10.55,3.01,11.73
16.297,2.88,10.70,2.36,11.33
16.307,1.67,9.83,1.48,10.08
16.317,1.88,8.56,0.81,8.80
16.327,3.31,7.18,0.05,7.91
16.336,4.59,5.96,-1.06,7.59
16.346,4.93,5.01,-2.01,7.31
16.356,4.32,4.78,-2.18,6.81
16.367,2.96,5.40,-1.56,6.35
16.376,1.25,6.30,-0.44,6.44
16.387,-0.18,6.56,0.52,6.58
16.396,-0.72,5.90,0.93,6.02
16.406,-0.62,4.45,0.99,4.60
16.416,-0.55,2.57,0.98,2.81
16.426,-0.37,0.78,0.87,1.22
16.436,-0.01,-0.78,0.67,1.02
16.446,0.22,-1.91,0.42,1.97
16.456,0.31,-3.03,0.28,3.06
16.467,0.34,-4.21,0.25,4.23
16.476,0.36,-5.33,0.25,5.34
16.486,0.36,-6.27,0.24,6.28
16.496,0.38,-7.08,0.29,7.10
16.506,0.38,-7.82,0.39,7.84
16.516,0.39,-8.35,0.37,8.37
16.526,0.37,-8.55,0.07,8.56
16.536,0.26,-8.30,-0.32,8.31
16.546,0.26,-7.30,-0.31,7.31
16.556,0.27,-6.02,-0.04,6.03
16.566,0.16,-4.51,0.18,4.51
16.576,-0.13,-3.07,0.19,3.08
16.586,-0.48,-1.78,0.33,1.87
16.596,-0.73,-0.24,0.57,0.95
16.606,-0.80,1.77,0.61,2.03
16.616,-0.81,3.83,0.50,3.94
16.626,-0.87,5.28,0.43,5.36
16.636,-0.99,5.36,0.59,5.49
16.646,-0.73,3.54,1.08,3.78
16.656,-0.36,1.47,1.66,2.24
16.666,-0.16,0.60,2.15,2.23
16.676,0.10,0.08,2.26,2.27
16.686,0.40,-0.63,2.12,2.25
16.696,0.77,-1.27,1.90,2.41
16.706,1.11,-1.78,1.55,2.61
16.716,1.29,-2.05,1.20,2.71
16.726,1.29,-2.12,0.74,2.59
16.736,1.13,-2.08,0.18,2.38
16.746,0.83,-2.11,-0.26,2.29
16.756,0.68,-1.95,-0.38,2.10
16.766,0.77,-1.67,-0.37,1.87
16.776,0.91,-1.47,-0.18,1.73
16.786,0.97,-1.33,0.04,1.64
16.796,0.90,-1.24,0.28,1.55
16.806,0.88,-1.33,0.53,1.68
16.816,0.86,-1.56,0.79,1.95
16.826,0.74,-1.76,0.98,2.14
16.836,0.57,-1.98,1.00,2.29
16.846,0.45,-2.13,0.87,2.34
16.856,0.46,-2.32,0.52,2.42
16.866,0.47,-2.69,0.07,2.73
16.876,0.48,-3.26,-0.47,3.33
16.886,0.55,-3.86,-1.01,4.02
16.896,0.70,-4.21,-1.44,4.51
16.906,0.94,-4.29,-1.79,4.74
16.916,1.21,-4.14,-1.97,4.74
16.926,1.48,-3.84,-2.11,4.63
16.936,1.78,-3.35,-2.22,4.40
16.946,2.12,-2.58,-2.28,4.04
16.956,2.51,-1.50,-2.25,3.69
16.966,3.03,-0.08,-1.68,3.46
16.976,3.87,1.97,-0.27,4.35
16.986,5.09,4.23,0.99,6.69
16.996,5.90,7.09,2.26,9.50
17.005,5.18,10.27,2.22,11.72
17.016,2.46,11.72,0.85,12.01
17.027,-0.20,12.00,-0.02,12.00
17.037,-2.04,12.11,-0.39,12.29
17.046,-3.71,10.42,-0.52,11.08
17.055,-3.13,7.34,-0.81,8.02
17.065,-0.37,3.88,-0.21,3.90
17.076,2.02,1.93,0.53,2.85
17.085,3.15,0.60,0.22,3.21
17.096,3.70,-0.42,-0.78,3.81
17.106,3.91,-1.32,-1.87,4.53
17.115,3.51,-2.23,-2.21,4.71
17.125,2.37,-2.62,-0.95,3.65
17.135,1.12,-2.27,0.89,2.68
17.146,0.13,-2.27,1.92,2.98
17.155,-0.65,-2.80,2.06,3.53
17.165,-1.30,-3.23,1.56,3.82
17.175,-1.80,-3.37,1.05,3.96
17.185,-2.31,-3.37,0.61,4.13
17.195,-2.91,-3.41,0.28,4.49
17.205,-3.65,-3.51,0.19,5.06
17.215,-4.45,-3.61,0.41,5.75
17.225,-5.21,-3.67,0.83,6.43
17.235,-5.73,-3.61,1.18,6.87
17.245,-5.85,-3.32,1.14,6.82
17.255,-5.11,-3.04,0.81,6.00
17.265,-3.66,-2.94,0.70,4.75
17.275,-2.60,-2.35,0.60,3.56
17.285,-1.89,-1.21,0.45,2.29
17.295,-1.39,0.35,0.22,1.45
17.305,-0.76,1.97,-0.23,2.13
17.315,0.21,3.26,-0.64,3.33
17.325,1.40,3.98,-0.35,4.24
17.335,2.35,3.81,0.62,4.52
17.345,2.87,2.75,1.71,4.33
17.355,2.69,1.24,2.19,3.68
17.365,2.05,-0.17,2.04,2.89
17.375,1.43,-1.33,1.46,2.44
17.385,0.79,-2.15,0.61,2.37
17.395,0.14,-2.61,-0.13,2.62
17.405,-0.41,-2.83,-0.63,2.93
17.415,-0.87,-2.91,-1.04,3.21
17.425,-1.22,-2.86,-1.43,3.42
17.435,-1.48,-2.61,-1.64,3.42
17.445,-1.80,-2.42,-1.51,3.37
17.455,-2.01,-2.34,-0.96,3.23
17.465,-1.96,-2.25,-0.10,2.99
17.475,-1.70,-2.18,0.63,2.84
17.485,-1.31,-2.26,0.77,2.72
17.495,-0.84,-2.46,0.42,2.64
17.505,-0.41,-2.71,-0.01,2.74
17.515,0.06,-2.74,-0.45,2.78
17.525,0.51,-2.40,-0.99,2.65
17.535,0.79,-1.86,-1.66,2.62
17.545,0.95,-1.51,-2.22,2.85
17.555,1.12,-1.41,-2.51,3.10
17.565,1.32,-1.42,-2.53,3.18
17.575,1.46,-1.43,-2.34,3.10
17.585,1.51,-1.34,-1.98,2.83
17.595,1.45,-1.05,-1.67,2.44
17.605,1.28,-0.38,-1.44,1.96
17.615,1.06,0.79,-1.26,1.83
17.625,0.79,2.50,-1.15,2.86
17.635,0.41,4.79,-1.03,4.92
17.644,-0.20,7.68,-0.65,7.71
17.655,-0.76,11.10,1.24,11.19
17.664,-1.00,13.77,3.97,14.36
17.676,0.13,13.76,4.98,14.64
17.685,2.15,10.24,4.60,11.43
17.694,2.91,7.09,3.81,8.56
17.704,2.15,5.46,2.50,6.38
17.715,0.40,5.10,0.72,5.17
17.724,-1.48,5.49,-0.59,5.72
17.734,-2.71,5.98,-1.49,6.73
17.744,-3.18,6.06,-2.13,7.17
17.754,-2.89,4.79,-2.09,5.97
17.765,-1.97,2.80,-2.24,4.09
17.774,-0.66,1.12,-2.16,2.52
17.785,0.22,-0.39,-1.61,1.67
17.795,0.59,-1.53,-1.06,1.96
17.805,0.79,-2.46,-0.70,2.68
17.814,0.92,-3.40,-0.47,3.55
17.825,0.99,-4.21,-0.23,4.33
17.834,1.07,-4.95,-0.02,5.06
17.844,1.06,-5.59,0.25,5.70
17.854,0.96,-6.27,0.48,6.36
17.864,0.67,-6.97,0.76,7.04
17.874,0.25,-7.67,1.04,7.74
17.884,-0.21,-8.30,1.16,8.38
17.894,-0.51,-8.35,1.00,8.43
17.904,-0.68,-7.32,0.99,7.42
17.914,-0.64,-5.50,0.71,5.59
17.924,-0.44,-3.45,0.08,3.48
17.934,-0.17,-1.52,-0.54,1.62
17.944,0.06,0.36,-1.01,1.07
17.954,0.50,2.42,-1.14,2.72
17.964,1.13,4.20,-1.07,4.48
17.974,1.80,5.54,-0.76,5.87
17.984,2.54,6.44,-0.42,6.94
17.994,2.81,5.89,0.41,6.54
18.004,2.00,3.61,1.61,4.43
18.014,0.75,2.07,2.75,3.53
18.024,-0.18,1.11,3.49,3.67
18.034,-0.43,0.15,3.25,3.28
18.044,-0.12,-0.62,2.27,2.36
18.054,0.37,-1.29,1.08,1.72
18.064,0.65,-1.85,0.12,1.96
18.074,0.67,-2.09,-0.46,2.24
18.084,0.53,-2.18,-1.30,2.59
18.094,0.21,-2.22,-1.86,2.91
18.104,-0.08,-2.03,-1.67,2.63
18.114,-0.13,-1.74,-0.86,1.95
18.124,0.17,-1.71,0.09,1.72
18.134,0.49,-1.78,0.85,2.03
18.144,0.54,-1.85,1.38,2.37
18.154,0.43,-1.92,1.59,2.53
18.164,0.32,-2.06,1.54,2.59
18.174,0.23,-2.30,1.31,2.65
18.184,0.14,-2.53,0.95,2.71
18.194,0.15,-2.91,0.53,2.96
18.204,0.28,-3.35,0.05,3.36
18.214,0.54,-3.81,-0.53,3.88
18.224,0.80,-4.26,-1.15,4.48
18.234,0.95,-4.55,-1.75,4.97
18.244,1.04,-4.50,-2.32,5.17
18.254,1.16,-4.13,-2.88,5.17
18.264,1.31,-3.41,-3.37,4.97
18.274,1.45,-2.40,-3.63,4.59
18.284,1.84,-1.14,-3.24,3.90
18.294,2.57,0.42,-2.08,3.33
18.304,3.59,2.37,-0.28,4.32
18.314,4.24,5.33,2.15,7.14
18.323,3.64,9.31,3.35,10.55
18.334,1.74,12.03,2.43,12.40
18.344,0.07,11.95,1.29,12.02
18.355,-0.38,11.41,0.46,11.43
18.364,-1.99,9.72,0.80,9.95
18.374,-3.12,6.65,0.22,7.35
18.384,-2.37,3.93,-0.33,4.60
18.394,-0.73,2.56,0.07,2.66
18.404,0.70,1.31,-0.02,1.48
18.413,1.58,-0.07,-0.88,1.81
18.424,2.15,-1.20,-1.57,2.92
18.433,2.31,-2.07,-1.69,3.53
18.444,2.18,-2.64,-1.22,3.64
18.453,1.96,-2.67,-0.10,3.31
18.464,1.67,-2.06,1.19,2.91
18.474,1.15,-1.69,1.73,2.68
18.483,0.49,-1.88,1.61,2.52
18.493,-0.31,-2.20,1.18,2.52
18.503,-1.16,-2.42,0.84,2.81
18.513,-1.91,-2.55,0.69,3.26
18.523,-2.69,-2.72,0.67,3.88
18.533,-3.55,-2.97,0.82,4.70
18.543,-4.51,-3.17,1.06,5.61
18.553,-5.31,-3.22,1.07,6.30
18.563,-5.79,-3.06,0.73,6.59
18.573,-5.82,-2.65,0.16,6.40
18.584,-5.09,-2.20,-0.18,5.55
18.593,-3.81,-1.93,-0.12,4.28
18.603,-2.76,-1.37,-0.11,3.09
18.613,-1.90,-0.53,-0.15,1.98
18.623,-1.07,0.53,-0.18,1.21
18.633,-0.15,1.64,-0.15,1.66
18.643,0.80,2.51,-0.08,2.64
18.653,1.53,2.81,0.25,3.20
18.663,2.09,2.52,0.89,3.39
18.673,2.40,1.66,1.51,3.29
18.683,2.31,0.51,1.75,2.94
18.693,1.79,-0.80,1.45,2.43
18.703,1.13,-2.06,0.77,2.48
18.713,0.60,-2.95,0.07,3.01
18.723,0.16,-3.44,-0.54,3.49
18.733,-0.23,-3.61,-1.01,3.75
18.743,-0.59,-3.54,-1.29,3.81
18.753,-0.90,-3.30,-1.52,3.75
18.763,-1.23,-2.93,-1.67,3.59
18.773,-1.58,-2.51,-1.52,3.33
18.783,-1.77,-1.96,-0.95,2.80
18.793,-1.69,-1.22,0.07,2.08
18.803,-1.38,-0.39,1.12,1.82
18.813,-0.81,0.14,1.44,1.66
18.823,-0.10,0.11,1.02,1.03
18.833,0.60,-0.41,0.20,0.76
18.843,1.16,-1.06,-0.64,1.69
18.853,1.49,-1.47,-1.48,2.56
18.863,1.60,-1.44,-2.27,3.13
18.873,1.49,-1.24,-2.75,3.36
18.883,1.26,-1.06,-2.80,3.25
18.893,1.04,-0.86,-2.70,3.02
18.903,0.91,-0.71,-2.50,2.76
18.913,0.92,-0.56,-2.11,2.36
18.923,1.05,-0.24,-1.65,1.97
18.933,1.13,0.32,-1.24,1.71
18.943,1.08,1.32,-1.01,1.98
18.953,0.88,2.79,-0.79,3.03
18.963,0.46,4.53,-0.47,4.57
18.973,-0.17,6.41,0.12,6.41
18.983,-0.77,8.24,1.51,8.42
18.993,-0.94,9.55,2.82,10.00
19.003,-0.01,10.07,2.83,10.46
19.013,2.04,8.85,2.31,9.37
19.022,3.38,6.59,1.81,7.62
19.033,3.13,4.87,1.16,5.90
19.043,1.81,3.93,0.30,4.34
19.053,0.04,3.92,-0.50,3.95
19.063,-1.62,4.48,-0.96,4.86
19.073,-2.63,5.46,-1.27,6.20
19.083,-2.93,5.97,-1.15,6.75
19.093,-2.74,5.31,-1.01,6.06
19.103,-2.36,4.20,-0.86,4.89
19.112,-1.97,3.23,-0.50,3.81
19.123,-1.63,2.37,-0.35,2.90
19.132,-1.29,1.43,-0.31,1.95
19.143,-0.97,0.32,-0.22,1.04
19.153,-0.67,-1.07,-0.01,1.26
19.163,-0.38,-2.61,0.30,2.65
19.172,-0.16,-4.05,0.62,4.10
19.183,-0.01,-5.22,0.74,5.28
19.192,0.05,-6.24,0.85,6.30
19.202,-0.08,-7.22,0.90,7.28
19.212,-0.44,-8.24,0.93,8.30
19.222,-0.86,-9.21,0.70,9.28
19.232,-1.10,-9.70,0.48,9.77
19.242,-1.05,-9.45,0.47,9.52
19.252,-0.65,-8.11,0.09,8.14
19.262,-0.42,-6.07,-0.35,6.10
19.272,-0.33,-3.95,-0.78,4.04
19.282,0.04,-2.05,-1.21,2.38
19.292,0.76,-0.20,-1.62,1.80
19.302,1.45,2.18,-1.48,3.01
19.312,2.00,4.76,-1.24,5.31
19.322,2.50,7.64,-1.02,8.10
19.332,2.61,9.87,0.01,10.21
19.342,1.57,8.08,1.76,8.42
19.352,0.33,3.16,3.04,4.40
19.362,-0.12,0.13,3.54,3.54
19.372,0.04,-1.62,3.08,3.48
19.382,0.36,-2.74,2.01,3.41
19.392,0.67,-3.33,1.16,3.59
19.402,0.98,-3.31,0.74,3.53
19.412,1.01,-2.80,-0.14,2.98
19.422,0.73,-2.22,-1.20,2.63
19.432,0.27,-2.02,-1.65,2.62
19.442,-0.31,-1.99,-1.15,2.32
19.452,-0.46,-2.13,-0.57,2.25
19.462,-0.23,-2.31,0.12,2.32
19.472,-0.04,-2.59,0.79,2.71
19.482,-0.10,-2.99,1.23,3.24
19.492,-0.21,-3.28,1.42,3.58
19.502,-0.23,-3.41,1.25,3.64
19.512,-0.16,-3.51,0.71,3.58
19.522,-0.11,-3.74,-0.01,3.74
19.532,-0.02,-4.04,-0.86,4.13
19.542,0.14,-4.39,-1.64,4.69
19.552,0.39,-4.78,-2.25,5.30
19.562,0.74,-5.01,-2.70,5.74
19.572,1.23,-4.88,-3.04,5.88
19.582,1.84,-4.33,-3.32,5.76
19.592,2.53,-3.26,-3.37,5.33
19.602,3.37,-1.51,-2.37,4.39
19.612,4.55,1.11,-0.65,4.72
19.622,5.84,4.51,1.16,7.47
19.632,6.02,9.16,3.06,11.38
19.642,4.00,13.71,2.93,14.58
19.652,1.01,14.76,1.43,14.87
19.663,-0.54,14.92,-0.11,14.93
19.673,-3.36,13.57,0.58,14.00
19.682,-5.41,9.80,0.61,11.21
19.692,-4.22,5.51,0.16,6.94
19.702,-1.24,3.25,0.91,3.60
19.711,1.25,1.49,0.65,2.05
19.722,2.57,-0.71,-0.69,2.76
19.731,3.24,-2.36,-2.06,4.50
19.742,3.38,-3.49,-2.66,5.54
19.751,3.01,-4.27,-2.26,5.69
19.762,2.09,-4.05,-0.51,4.59
19.771,0.93,-2.72,1.37,3.18
19.782,-0.12,-2.23,2.10,3.06
19.792,-0.84,-2.43,1.86,3.17
19.802,-1.36,-2.44,1.36,3.11
19.811,-1.79,-2.13,0.96,2.94
19.822,-2.27,-1.76,0.67,2.95
19.832,-2.97,-1.66,0.60,3.46
19.841,-3.87,-1.96,0.89,4.43
19.851,-4.83,-2.53,1.34,5.61
19.861,-5.59,-3.04,1.61,6.56
19.871,-5.88,-3.22,1.44,6.86
19.881,-5.41,-3.11,0.82,6.30
19.891,-4.17,-3.02,0.20,5.15
19.901,-3.01,-2.80,-0.42,4.14
19.911,-2.15,-2.31,-0.83,3.26
19.921,-1.49,-1.40,-0.75,2.18
19.931,-0.87,-0.04,-0.52,1.02
19.941,-0.21,1.35,-0.59,1.49
19.951,0.57,2.41,-0.76,2.59
19.961,1.42,3.12,-0.64,3.49
19.971,2.28,3.37,0.08,4.07
19.981,2.99,2.90,1.17,4.32
19.991,3.28,1.61,2.13,4.23
20.001,2.89,-0.04,2.29,3.69
20.011,2.08,-1.60,1.61,3.08
20.021,1.15,-2.72,0.51,3.00
20.031,0.40,-3.23,-0.49,3.29
20.041,-0.21,-3.32,-1.15,3.52
20.051,-0.74,-3.15,-1.49,3.56
20.062,-1.19,-2.87,-1.75,3.57
20.071,-1.57,-2.44,-1.81,3.42
20.081,-2.02,-2.11,-1.57,3.31
20.091,-2.40,-1.78,-0.98,3.15
20.101,-2.57,-1.34,0.01,2.90
20.111,-2.36,-0.88,1.09,2.74
20.121,-1.78,-0.66,1.48,2.41
20.131,-1.05,-0.86,1.13,1.77
20.141,-0.29,-1.23,0.64,1.41
20.151,0.42,-1.50,0.11,1.56
20.161,0.97,-1.59,-0.78,2.02
20.171,1.17,-1.40,-1.96,2.68
20.181,1.24,-1.12,-2.95,3.39
20.191,1.29,-0.91,-3.38,3.73
20.201,1.28,-0.67,-3.32,3.62
20.211,1.36,-0.46,-2.93,3.26
20.221,1.51,-0.29,-2.40,2.85
20.231,1.68,-0.00,-1.89,2.53
20.241,1.73,0.69,-1.41,2.34
20.251,1.60,1.92,-1.03,2.70
20.261,1.20,3.76,-0.66,4.00
20.271,0.48,6.06,-0.01,6.08
20.281,-0.29,8.45,1.37,8.56
20.291,-0.64,10.26,2.81,10.66
20.301,0.02,10.61,3.26,11.10
20.311,1.35,8.64,3.23,9.32
20.321,1.87,6.09,3.05,7.06
20.331,1.23,4.60,2.50,5.38
20.341,-0.21,4.11,1.19,4.29
20.351,-1.90,4.59,0.06,4.97
20.361,-3.08,5.41,-0.82,6.28
20.371,-3.38,6.14,-1.79,7.24
20.381,-2.93,5.95,-2.18,6.98
20.390,-2.21,4.43,-1.68,5.22
20.401,-1.68,2.69,-1.04,3.34
20.411,-1.26,1.42,-0.77,2.05
20.421,-0.91,0.44,-0.49,1.12
20.431,-0.44,-0.45,-0.26,0.68
20.441,0.02,-1.49,-0.09,1.50
20.451,0.36,-2.64,0.05,2.67
20.461,0.63,-3.82,0.17,3.88
20.471,0.90,-4.78,0.29,4.87
20.481,1.09,-5.53,0.44,5.65
20.490,1.14,-6.22,0.60,6.36
20.500,1.06,-6.88,0.75,7.01
20.510,0.86,-7.54,0.69,7.62
20.520,0.62,-8.19,0.37,8.22
20.530,0.50,-8.49,-0.00,8.51
20.540,0.43,-8.08,-0.11,8.09
20.550,0.45,-6.68,-0.34,6.71
20.560,0.42,-4.58,-0.75,4.66
20.570,0.32,-2.53,-1.30,2.87
20.580,0.27,-0.47,-1.60,1.69
20.591,0.45,1.72,-1.65,2.42
20.600,0.60,3.73,-1.38,4.02
20.610,0.79,5.78,-0.86,5.90
20.620,1.18,7.60,-0.25,7.70
20.630,1.26,7.60,0.92,7.76
20.640,0.60,4.43,2.33,5.04
20.650,-0.11,1.86,3.36,3.84
20.660,-0.60,0.26,3.67,3.73
20.670,-0.74,-0.94,3.22,3.44
20.680,-0.54,-1.69,2.25,2.87
20.690,-0.15,-2.09,1.13,2.38
20.700,0.13,-2.41,0.13,2.42
20.710,0.23,-2.39,-0.30,2.42
20.720,0.20,-2.10,-0.74,2.23
20.730,0.11,-1.84,-1.30,2.25
20.740,0.17,-1.71,-1.41,2.23
20.750,0.34,-1.55,-0.89,1.81
20.760,0.48,-1.54,-0.17,1.62
20.770,0.42,-1.77,0.42,1.87
20.780,0.19,-1.92,0.86,2.11
20.790,0.03,-1.89,1.03,2.15
20.800,0.03,-1.81,1.00,2.06
20.810,0.06,-1.70,0.85,1.90
20.820,0.03,-1.73,0.76,1.89
20.830,-0.00,-1.95,0.61,2.04
20.840,0.06,-2.42,0.23,2.43
20.850,0.16,-3.09,-0.28,3.11
20.860,0.29,-3.72,-0.76,3.81
20.870,0.48,-4.12,-1.17,4.32
20.880,0.70,-4.14,-1.60,4.49
20.890,0.84,-3.82,-2.03,4.41
20.900,0.89,-3.26,-2.33,4.10
20.910,0.98,-2.58,-2.49,3.72
20.920,1.28,-1.80,-2.39,3.26
20.930,1.94,-0.85,-1.66,2.69
20.940,2.94,0.20,-0.45,2.98
20.950,4.01,2.08,1.25,4.69
20.960,4.49,5.63,2.62,7.66
20.970,3.93,9.51,1.37,10.38
20.980,2.09,11.15,-0.68,11.37
20.991,0.39,10.62,-0.93,10.67
21.000,-0.65,9.85,-0.14,9.87
21.010,-1.75,8.84,0.40,9.02
21.020,-1.96,6.93,-0.29,7.21
21.030,-0.26,4.27,-0.36,4.30
21.040,1.62,3.03,0.29,3.45
21.050,2.54,1.89,-0.17,3.17
21.060,2.97,0.83,-1.09,3.27
21.070,2.99,0.05,-1.67,3.42
21.080,2.45,-0.70,-1.62,3.02
21.089,1.48,-1.07,-0.75,1.97
21.100,0.49,-0.78,0.51,1.06
21.110,-0.28,-0.75,1.23,1.47
21.120,-0.73,-1.10,1.22,1.80
21.130,-1.12,-1.52,0.97,2.12
21.140,-1.50,-2.05,0.61,2.61
21.149,-1.95,-2.61,0.42,3.28
21.160,-2.52,-3.31,0.47,4.19
21.170,-3.21,-4.04,0.72,5.21
21.180,-3.96,-4.70,1.07,6.24
21.189,-4.70,-5.09,1.44,7.07
21.199,-5.19,-5.05,1.60,7.42
21.209,-5.29,-4.63,1.40,7.17
21.219,-4.89,-3.97,0.96,6.37
21.230,-3.97,-3.24,0.76,5.18
21.240,-3.02,-2.16,0.64,3.77
21.250,-2.16,-0.75,0.42,2.32
21.259,-1.34,0.69,0.14,1.51
21.269,-0.56,1.91,-0.15,1.99
21.279,0.28,2.83,-0.17,2.84
21.289,1.15,3.24,0.37,3.45
21.299,1.84,2.87,1.08,3.58
21.309,2.14,1.83,1.61,3.24
21.319,2.02,0.67,1.72,2.73
21.329,1.74,-0.32,1.43,2.27
21.339,1.48,-1.06,0.84,2.01
21.349,1.23,-1.48,0.18,1.93
21.359,0.96,-1.62,-0.32,1.91
21.369,0.64,-1.64,-0.64,1.88
21.379,0.26,-1.59,-0.83,1.81
21.389,-0.16,-1.49,-0.88,1.74
21.399,-0.60,-1.39,-0.89,1.76
21.409,-0.99,-1.34,-0.72,1.81
21.419,-1.23,-1.22,-0.35,1.77
21.429,-1.21,-0.93,0.13,1.54
21.439,-1.13,-0.81,0.72,1.56
21.449,-0.94,-0.80,1.11,1.66
21.459,-0.65,-0.85,1.17,1.59
21.469,-0.37,-1.03,1.00,1.48
21.479,-0.14,-1.31,0.60,1.45
21.489,0.04,-1.55,0.08,1.55
21.499,0.16,-1.72,-0.56,1.82
21.509,0.34,-1.91,-1.21,2.28
21.519,0.60,-2.12,-1.62,2.73
21.529,0.94,-2.35,-1.71,3.05
21.539,1.22,-2.61,-1.66,3.32
21.549,1.30,-2.74,-1.61,3.43
21.559,1.14,-2.50,-1.56,3.16
21.569,0.87,-2.11,-1.50,2.73
21.579,0.71,-1.77,-1.39,2.36
21.589,0.67,-1.47,-1.21,2.01
21.599,0.61,-1.16,-0.99,1.64
21.609,0.51,-0.68,-0.78,1.16
21.619,0.29,0.10,-0.65,0.72
21.629,-0.13,1.28,-0.63,1.43
21.639,-0.80,2.97,-0.52,3.12
21.649,-1.66,5.17,-0.19,5.43
21.659,-2.38,7.80,0.49,8.17
21.669,-2.15,10.53,1.44,10.84
21.679,-0.13,12.15,1.87,12.29
21.689,2.91,10.85,1.68,11.36
21.699,4.43,7.75,1.77,9.10
21.709,3.51,5.07,2.11,6.52
21.719,1.58,4.22,1.68,4.81
21.729,0.04,4.47,0.64,4.51
21.739,-0.86,4.84,-0.48,4.94
21.749,-1.19,5.30,-1.55,5.65
21.759,-1.36,5.63,-2.39,6.27
21.768,-1.69,5.57,-2.58,6.37
21.779,-2.02,4.81,-2.15,5.64
21.789,-2.19,3.59,-1.37,4.42
21.799,-1.98,2.54,-1.16,3.42
21.809,-1.49,1.75,-0.93,2.48
21.819,-0.95,1.09,-0.64,1.58
21.829,-0.51,0.44,-0.28,0.73
21.838,-0.26,-0.21,0.08,0.34
21.849,-0.13,-1.10,0.35,1.16
21.859,0.10,-2.08,0.60,2.17
21.869,0.47,-3.09,0.79,3.22
21.879,0.90,-4.04,0.86,4.22
21.888,1.28,-4.96,0.90,5.20
21.899,1.46,-5.93,0.93,6.18
21.909,1.39,-6.96,0.89,7.16
21.919,1.13,-7.87,0.58,7.97
21.928,0.66,-8.52,0.22,8.55
21.938,-0.01,-8.69,-0.02,8.69
21.948,-0.61,-8.00,-0.37,8.03
21.959,-0.87,-6.86,-0.80,6.96
21.968,-0.95,-5.43,-1.44,5.70
21.978,-1.00,-3.75,-1.80,4.28
21.988,-0.93,-1.77,-1.69,2.62
21.998,-0.51,0.14,-1.88,1.96
22.008,-0.14,1.84,-1.86,2.62
22.018,0.31,3.74,-1.30,3.97
22.028,1.11,6.20,-0.31,6.31
22.038,1.89,7.68,1.54,8.06
22.048,1.84,6.25,3.49,7.40
22.058,0.85,3.30,4.36,5.53
22.068,0.07,1.35,4.24,4.45
22.078,-0.18,-0.01,3.25,3.26
22.088,-0.14,-0.85,1.92,2.11
22.098,-0.18,-1.42,0.79,1.63
22.108,-0.26,-1.62,0.07,1.64
22.118,-0.38,-1.72,-0.32,1.79
22.128,-0.52,-1.90,-0.66,2.08
22.138,-0.59,-2.19,-0.79,2.40
22.148,-0.58,-2.42,-0.61,2.56
22.158,-0.49,-2.45,-0.18,2.51
22.168,-0.39,-2.31,0.27,2.35
22.178,-0.38,-2.08,0.36,2.15
22.188,-0.36,-1.75,0.20,1.80
22.198,-0.20,-1.43,0.10,1.45
22.208,0.12,-1.16,0.15,1.17
22.218,0.50,-0.83,0.26,1.00
22.228,0.81,-0.75,0.27,1.14
22.238,0.99,-1.05,0.26,1.47
22.248,1.05,-1.47,0.24,1.82
22.258,1.07,-1.91,0.23,2.20
22.268,1.06,-2.40,0.09,2.62
22.278,0.94,-3.01,-0.21,3.16
22.288,0.79,-3.56,-0.62,3.70
22.298,0.70,-3.84,-1.00,4.03
22.308,0.68,-3.93,-1.33,4.20
22.318,0.71,-3.90,-1.59,4.27
22.328,0.81,-3.76,-1.77,4.23
22.338,0.98,-3.47,-1.89,4.07
22.348,1.21,-3.01,-1.96,3.79
22.358,1.54,-2.42,-1.69,3.33
22.368,2.13,-1.87,-1.09,3.04
22.378,2.94,-0.98,0.21,3.11
22.388,3.57,1.56,2.22,4.49
22.398,3.50,5.44,2.79,7.04
22.408,2.20,9.41,0.78,9.69
22.418,0.69,11.00,-1.36,11.11
22.428,0.25,10.99,-2.31,11.23
22.438,-0.34,10.74,-1.46,10.85
22.449,-1.24,9.80,-0.26,9.88
22.458,-1.47,7.43,-0.27,7.58
22.468,-0.17,4.39,-0.10,4.39
22.477,1.72,3.65,0.19,4.03
22.488,3.31,3.10,-0.83,4.61
22.498,4.29,2.15,-2.22,5.28
22.507,4.49,1.34,-3.16,5.65
22.518,3.96,0.73,-3.07,5.06
22.527,2.89,0.50,-1.58,3.33
22.538,1.56,0.68,0.54,1.78
22.547,0.35,0.59,1.95,2.07
22.557,-0.52,0.32,2.16,2.25
22.567,-1.07,0.07,1.50,1.84
22.577,-1.38,-0.39,0.84,1.66
22.587,-1.50,-0.97,0.64,1.90
22.597,-1.59,-1.77,0.65,2.47
22.608,-1.76,-2.86,0.63,3.41
22.617,-2.05,-4.08,0.65,4.61
22.627,-2.41,-5.14,0.68,5.72
22.637,-2.80,-5.83,0.62,6.49
22.647,-3.09,-6.09,0.44,6.85
22.657,-3.31,-5.97,0.19,6.82
22.668,-3.51,-5.49,-0.12,6.51
22.677,-3.57,-4.53,-0.30,5.78
22.687,-3.37,-3.22,-0.19,4.67
22.697,-3.01,-1.73,-0.02,3.47
22.707,-2.52,-0.25,0.14,2.53
22.717,-1.92,1.23,0.29,2.30
22.727,-1.44,2.57,0.44,2.98
22.737,-1.07,3.29,0.77,3.54
22.747,-0.66,2.93,1.27,3.26
22.757,-0.15,1.65,1.56,2.28
22.767,0.31,0.34,1.61,1.67
22.777,0.58,-0.58,1.61,1.81
22.787,0.57,-1.12,1.52,1.97
22.797,0.50,-1.34,1.09,1.80
22.807,0.45,-1.50,0.22,1.58
22.818,0.29,-1.60,-0.67,1.76
22.827,0.06,-1.58,-1.29,2.04
22.837,-0.14,-1.49,-1.61,2.19
22.847,-0.28,-1.51,-1.49,2.14
22.857,-0.32,-1.78,-1.17,2.16
22.867,-0.37,-2.17,-0.80,2.34
22.877,-0.42,-2.42,-0.42,2.49
22.887,-0.49,-2.42,-0.00,2.47
22.897,-0.56,-2.24,0.53,2.37
22.907,-0.53,-1.80,0.94,2.10
22.917,-0.30,-1.11,1.04,1.55
22.927,-0.10,-0.48,0.87,1.00
22.937,0.05,-0.05,0.49,0.50
22.947,0.17,0.27,0.07,0.32
22.957,0.23,0.40,-0.41,0.61
22.967,0.30,0.34,-0.94,1.04
22.977,0.41,0.16,-1.41,1.48
22.987,0.58,-0.13,-1.62,1.72
22.997,0.81,-0.49,-1.57,1.84
23.007,1.05,-0.89,-1.43,1.98
23.017,1.19,-1.23,-1.33,2.17
23.027,1.02,-1.29,-1.29,2.09
23.037,0.54,-0.98,-1.25,1.67
23.047,0.10,-0.87,-1.22,1.50
23.057,-0.19,-1.03,-1.15,1.56
23.067,-0.43,-1.23,-1.05,1.68
23.077,-0.68,-1.36,-0.85,1.74
23.087,-0.95,-1.38,-0.53,1.76
23.097,-1.20,-1.27,-0.17,1.76
23.107,-1.39,-1.02,0.20,1.73
23.117,-1.50,-0.62,0.38,1.67
23.127,-1.43,-0.08,0.16,1.44
23.137,-1.19,0.69,-0.51,1.47
23.147,-1.06,1.74,-1.42,2.48
23.157,-1.11,3.10,-2.26,4.00
23.167,-1.13,4.91,-2.46,5.61
23.177,-0.85,7.15,-1.50,7.36
23.187,0.58,9.18,0.01,9.20
23.197,3.28,9.55,1.06,10.16
23.207,5.29,7.45,1.64,9.28
23.217,5.12,4.99,1.98,7.42
23.227,2.70,4.14,1.83,5.27
23.237,-0.11,4.46,1.39,4.67
23.246,-2.20,5.17,0.54,5.64
23.257,-3.44,6.01,-0.38,6.94
23.267,-3.78,6.48,-1.13,7.58
23.277,-3.69,5.89,-1.42,7.10
23.286,-3.44,4.99,-1.33,6.20
23.297,-3.25,4.57,-1.32,5.76
23.307,-3.05,4.21,-1.15,5.33
23.317,-2.63,3.63,-0.80,4.55
23.327,-1.93,2.59,-0.44,3.26
23.336,-1.13,1.28,-0.12,1.71
23.346,-0.43,0.06,0.02,0.44
23.356,0.11,-1.06,0.01,1.06
23.366,0.54,-2.18,0.04,2.25
23.376,0.90,-3.32,0.21,3.44
23.386,1.23,-4.31,0.41,4.50
23.396,1.57,-5.14,0.45,5.40
23.406,1.80,-6.00,0.41,6.28
23.416,1.90,-6.87,0.36,7.14
23.426,1.85,-7.64,0.31,7.87
23.436,1.69,-8.05,0.20,8.23
23.446,1.51,-8.28,-0.12,8.42
23.456,1.40,-8.14,-0.64,8.28
23.466,1.27,-7.39,-1.20,7.60
23.476,1.19,-5.98,-1.56,6.29
23.486,1.20,-4.05,-1.47,4.48
23.496,1.22,-2.18,-1.30,2.81
23.506,1.35,-0.43,-0.96,1.71
23.516,1.46,1.35,-0.40,2.03
23.526,1.40,3.61,0.38,3.90
23.536,1.18,6.01,0.45,6.15
23.546,0.74,7.57,0.38,7.61
23.556,-0.05,6.43,1.12,6.53
23.566,-0.40,3.07,2.34,3.88
23.576,-0.50,0.82,2.96,3.11
23.586,-0.59,-0.55,2.80,2.92
23.596,-0.71,-1.35,2.36,2.81
23.606,-0.84,-1.75,1.74,2.61
23.616,-0.81,-1.95,1.24,2.45
23.626,-0.46,-2.17,0.98,2.42
23.636,-0.04,-2.59,0.87,2.73
23.646,0.17,-3.12,0.76,3.22
23.656,0.06,-3.59,0.50,3.62
23.666,-0.14,-3.84,0.10,3.85
23.676,-0.18,-3.76,-0.27,3.78
23.686,-0.03,-3.33,-0.35,3.34
23.696,0.27,-2.74,-0.33,2.78
23.706,0.62,-2.33,-0.26,2.43
23.716,0.93,-2.01,0.03,2.22
23.726,1.13,-1.51,0.48,1.95
23.736,1.26,-0.78,0.88,1.72
23.746,1.33,0.08,1.03,1.68
23.756,1.24,0.49,0.84,1.57
23.766,0.93,0.44,0.40,1.10
23.776,0.63,0.18,-0.02,0.66
23.786,0.43,-0.26,-0.37,0.63
23.796,0.28,-0.76,-0.67,1.05
23.806,0.18,-1.22,-0.89,1.52
23.816,0.12,-1.73,-1.08,2.04
23.826,0.11,-2.04,-1.19,2.36
23.836,0.17,-2.15,-1.34,2.54
23.846,0.30,-2.10,-1.52,2.61
23.856,0.49,-1.87,-1.71,2.58
23.866,0.78,-1.53,-1.91,2.57
23.876,1.25,-1.13,-1.99,2.61
23.886,1.93,-0.68,-1.75,2.69
23.896,2.93,0.05,-0.60,2.99
23.905,4.22,0.79,0.78,4.36
23.916,5.15,1.95,2.15,5.91
23.925,5.20,4.46,2.88,7.43
23.935,3.96,7.09,1.35,8.24
23.945,1.19,8.94,-0.69,9.04
23.956,-1.70,9.32,-1.48,9.59
23.966,-3.91,8.90,-1.25,9.80
23.976,-4.96,7.63,-1.21,9.18
23.985,-3.87,4.71,-0.99,6.18
23.996,-1.02,1.50,0.07,1.81
24.005,0.94,1.20,0.68,1.67
24.016,1.74,1.51,-0.09,2.31
24.025,2.02,1.65,-1.43,2.97
24.035,1.92,1.65,-2.66,3.67
24.045,1.62,1.38,-2.84,3.55
24.056,1.53,1.22,-1.60,2.53
24.065,1.60,1.54,0.43,2.26
24.075,1.54,1.60,1.68,2.79
24.085,1.33,1.16,2.09,2.74
24.095,0.98,0.41,1.82,2.11
24.105,0.29,-0.66,1.25,1.45
24.115,-0.52,-1.88,0.91,2.16
24.125,-1.32,-3.09,0.84,3.46
24.135,-2.08,-4.29,0.89,4.85
24.145,-2.77,-5.24,1.13,6.03
24.155,-3.35,-5.69,1.39,6.75
24.165,-3.80,-5.60,1.42,6.92
24.175,-4.08,-5.06,1.02,6.58
24.185,-4.14,-4.22,0.31,5.92
24.195,-4.05,-3.20,-0.17,5.16
24.205,-3.80,-2.11,-0.24,4.35
24.215,-3.38,-0.95,-0.05,3.51
24.225,-2.75,0.20,0.04,2.76
24.235,-1.92,1.27,0.08,2.30
24.245,-0.96,1.98,0.21,2.21
24.255,0.06,2.22,0.38,2.25
24.265,0.83,1.83,0.65,2.11
24.275,1.23,0.93,0.89,1.78
24.285,1.15,-0.05,0.94,1.48
24.295,0.78,-0.77,0.65,1.28
24.305,0.37,-1.24,0.08,1.29
24.315,-0.02,-1.58,-0.42,1.64
24.325,-0.39,-1.88,-0.77,2.07
24.335,-0.68,-2.03,-1.05,2.38
24.345,-0.82,-2.04,-1.19,2.50
24.355,-0.84,-1.91,-1.11,2.36
24.365,-0.80,-1.67,-0.75,2.00
24.375,-0.85,-1.53,-0.36,1.78
24.385,-1.05,-1.48,0.15,1.82
24.395,-1.27,-1.39,0.72,2.02
24.405,-1.47,-1.27,1.14,2.26
24.415,-1.62,-1.21,1.28,2.39
24.425,-1.58,-1.20,1.13,2.28
24.435,-1.36,-1.20,0.79,1.98
24.445,-1.08,-1.30,0.26,1.71
24.455,-0.83,-1.48,-0.29,1.72
24.465,-0.71,-1.66,-0.89,2.01
24.475,-0.70,-1.76,-1.49,2.41
24.485,-0.60,-1.84,-1.84,2.67
24.495,-0.30,-1.88,-1.80,2.62
24.504,0.04,-1.90,-1.56,2.46
24.515,0.25,-1.84,-1.32,2.28
24.525,0.33,-1.65,-1.14,2.03
24.535,0.29,-1.42,-1.00,1.76
24.544,0.22,-1.37,-0.93,1.67
24.555,0.24,-1.45,-0.88,1.71
24.565,0.37,-1.54,-0.88,1.81
24.575,0.53,-1.55,-0.91,1.88
24.584,0.61,-1.32,-0.87,1.69
24.595,0.52,-0.77,-0.73,1.19
24.604,0.25,0.21,-0.75,0.82
24.614,-0.22,1.79,-1.00,2.06
24.624,-0.82,4.01,-1.09,4.24
24.635,-1.27,6.66,-0.93,6.84
24.645,-0.92,9.44,-0.19,9.49
24.655,0.80,11.44,0.93,11.50
24.665,3.18,11.08,1.47,11.62
24.674,4.22,8.66,1.54,9.75
24.684,2.86,6.64,1.46,7.38
24.694,0.39,6.46,1.11,6.57
24.704,-1.34,7.00,0.31,7.13
24.714,-1.71,7.32,-0.44,7.53
24.725,-1.29,7.24,-0.53,7.37
24.734,-1.06,6.25,-0.15,6.34
24.744,-1.32,4.74,-0.26,4.93
24.754,-1.61,3.83,-0.83,4.24
24.764,-1.96,3.59,-0.98,4.21
24.774,-2.26,3.62,-0.88,4.36
24.784,-2.22,3.39,-0.77,4.13
24.794,-1.80,2.64,-0.73,3.27
24.804,-1.14,1.33,-0.46,1.81
24.814,-0.42,-0.07,-0.17,0.46
24.824,0.23,-1.08,-0.20,1.12
24.834,0.74,-1.95,-0.36,2.11
24.844,1.23,-2.96,-0.49,3.25
24.854,1.83,-4.08,-0.69,4.53
24.864,2.41,-5.21,-0.97,5.82
24.874,2.80,-6.33,-1.32,7.05
24.884,2.95,-7.56,-1.53,8.26
24.894,2.97,-8.64,-1.53,9.26
24.904,2.83,-9.32,-1.46,9.85
24.914,2.64,-9.64,-1.57,10.12
24.924,2.43,-9.59,-1.84,10.06
24.934,2.16,-9.13,-2.25,9.65
24.944,1.81,-8.01,-2.59,8.62
24.954,1.60,-6.53,-2.59,7.21
24.964,1.54,-4.72,-2.15,5.41
24.974,1.70,-2.63,-1.69,3.56
24.984,1.88,-0.39,-1.32,2.34
24.994,2.09,1.92,-1.11,3.04
25.004,2.00,4.64,-0.72,5.10
25.014,1.47,7.72,-0.30,7.87
25.024,0.19,9.89,0.25,9.89
25.034,-1.25,9.44,1.45,9.64
25.044,-1.60,5.16,3.32,6.34
25.054,-1.27,1.31,4.45,4.81
25.064,-0.84,-0.41,4.41,4.51
25.074,-0.77,-1.11,3.50,3.75
25.084,-0.97,-0.93,2.16,2.54
25.094,-1.22,-0.87,1.55,2.15
25.104,-1.33,-0.97,1.26,2.07
25.114,-1.23,-1.07,0.77,1.80
25.124,-0.95,-1.36,0.06,1.66
25.134,-0.71,-1.79,-0.47,1.98
25.144,-0.64,-2.27,-0.66,2.45
25.154,-0.63,-2.89,-1.13,3.16
25.164,-0.33,-3.33,-1.54,3.69
25.174,0.20,-3.47,-1.55,3.81
25.184,0.81,-3.04,-1.19,3.36
25.194,1.32,-2.42,-0.81,2.88
25.204,1.67,-1.85,-0.40,2.53
25.214,1.86,-1.28,0.15,2.26
25.224,1.81,-0.70,0.65,2.04
25.234,1.59,-0.18,1.00,1.89
25.244,1.27,0.17,1.15,1.72
25.254,0.95,0.42,1.18,1.57
25.264,0.65,0.50,1.13,1.40
25.274,0.43,0.54,1.03,1.23
25.284,0.31,0.67,0.80,1.09
25.294,0.25,0.82,0.55,1.01
25.304,0.11,0.76,0.30,0.82
25.314,0.05,0.48,-0.15,0.50
25.323,-0.23,0.44,0.15,0.52
25.334,-0.46,-0.13,-0.16,0.50
25.344,-0.34,-0.89,-0.45,1.05
25.353,-0.19,-1.05,-0.20,1.08
25.363,0.08,-1.13,0.05,1.14
25.373,0.72,-1.33,0.10,1.51
25.383,0.87,-1.40,0.20,1.66
25.393,1.16,-1.54,0.07,1.93
25.403,1.51,-1.45,-0.01,2.09
25.413,1.38,-1.31,-0.56,1.98
25.423,1.50,-1.43,-1.30,2.45
25.433,1.56,-1.27,-1.37,2.43
25.443,1.42,-1.19,-1.13,2.17
25.453,1.23,-1.07,-0.78,1.81
25.463,1.01,-0.87,-0.48,1.42
25.473,0.91,-0.61,-0.44,1.18
25.483,0.99,-0.28,-0.67,1.23
25.493,1.11,0.00,-0.83,1.39
25.503,1.12,0.38,-0.66,1.36
25.513,1.15,0.76,-0.36,1.43
25.523,1.34,0.87,0.09,1.60
25.533,1.69,1.15,0.64,2.15
25.543,1.81,2.08,1.31,3.05
25.553,1.21,3.10,0.24,3.33
25.563,-0.27,4.40,-0.21,4.41
25.573,-1.31,5.31,-0.25,5.47
25.583,-1.70,5.82,-1.29,6.20
25.593,-1.42,5.89,-1.93,6.36
25.603,-0.54,5.69,-1.65,5.95
25.613,0.64,4.63,-0.49,4.70
25.623,2.07,2.92,1.12,3.75
25.633,2.22,3.11,2.25,4.43
25.643,2.04,4.12,1.63,4.88
25.653,1.57,4.73,0.47,5.01
25.663,0.49,4.67,-0.66,4.74
25.673,-1.09,4.21,-0.95,4.45
25.683,-0.92,3.15,-0.99,3.43
25.693,-0.33,2.09,-0.82,2.27
25.703,-0.37,0.93,-0.86,1.31
25.713,-0.56,-0.24,-0.76,0.98
25.723,-0.76,-0.94,-0.49,1.30
25.733,-0.69,-1.48,-0.34,1.67
25.743,-1.12,-1.20,0.39,1.69
25.753,-1.38,-1.35,0.55,2.00
25.763,-1.36,-1.82,0.66,2.37
25.773,-2.02,-1.51,1.08,2.75
25.783,-2.96,-0.45,1.36,3.29
25.793,-2.75,-0.59,1.19,3.06
25.803,-2.37,-1.87,0.38,3.05
25.813,-2.03,-3.58,-0.50,4.15
25.823,-2.09,-4.59,0.02,5.04
25.833,-2.12,-5.26,0.86,5.74
25.843,-1.86,-5.95,1.09,6.33
25.853,-1.88,-5.14,1.75,5.75
25.863,-1.62,-2.91,1.89,3.83
25.873,-1.68,-0.52,0.84,1.95
25.883,-1.47,0.74,-0.17,1.65
25.893,-1.06,1.34,-0.41,1.76
25.903,-0.73,1.47,-0.53,1.72
25.913,-0.44,1.48,-0.20,1.55
25.923,-0.21,1.04,0.45,1.15
25.933,-0.02,0.49,0.97,1.09
25.942,0.44,0.34,0.99,1.13
25.953,-0.08,0.75,0.98,1.23
25.962,-0.87,0.66,0.52,1.21
25.972,-1.39,0.16,0.48,1.48
25.983,-1.07,-0.32,0.88,1.42
25.993,-1.52,1.29,1.30,2.38
26.003,-2.25,1.78,0.88,3.01
26.013,-1.29,1.53,-0.01,2.00
26.022,-0.85,2.05,0.02,2.22
26.033,-0.90,2.12,0.03,2.31
26.043,-0.68,1.12,-0.58,1.44
26.053,-0.50,-0.06,-0.45,0.68
26.063,-0.57,-1.25,0.12,1.37
26.072,-0.53,-1.81,0.38,1.92
26.083,1.01,-0.80,0.63,1.43
26.092,1.27,2.98,0.09,3.24
26.102,0.83,5.80,0.10,5.86
26.112,1.15,6.65,-2.68,7.26
26.122,0.86,7.24,-1.37,7.42
26.132,0.88,7.14,-0.72,7.23
26.142,0.72,5.50,0.18,5.55
26.152,0.41,3.50,1.31,3.77
26.162,0.48,1.59,1.68,2.36
26.172,-0.06,0.98,2.95,3.10
26.182,-0.48,1.07,4.11,4.27
26.192,-0.75,2.92,4.14,5.12
26.202,-0.91,4.90,2.26,5.47
26.212,-0.72,4.05,-1.51,4.38
26.222,-0.98,1.28,-1.70,2.34
26.232,-2.22,-1.60,-0.44,2.77
26.242,-3.37,-4.10,0.63,5.34
26.252,-4.04,-5.85,1.54,7.27
26.262,-3.91,-6.16,2.63,7.75
26.272,-3.04,-5.00,3.21,6.67
26.282,-2.18,-2.90,2.93,4.66
26.292,-1.18,-0.47,3.43,3.66
26.302,0.30,0.82,3.24,3.35
26.312,1.43,0.96,2.57,3.10
26.322,2.13,0.48,3.29,3.94
26.332,2.26,-0.90,3.72,4.45
26.342,2.11,-2.44,3.40,4.69
26.352,2.21,-3.11,4.56,5.94
26.362,2.63,-3.19,5.75,7.09
26.372,2.76,-2.85,6.06,7.25
26.382,2.41,-2.14,6.02,6.83
26.392,1.78,-1.47,5.58,6.04
26.402,1.30,-1.37,5.21,5.54
26.412,1.48,-1.69,5.61,6.04
26.422,2.25,-1.83,6.56,7.18
26.432,2.96,-1.02,7.23,7.87
26.442,3.62,0.52,8.04,8.83
26.452,4.06,2.24,8.49,9.67
26.462,3.42,2.88,7.50,8.73
26.472,2.79,1.71,5.19,6.14
26.482,2.88,0.73,5.24,6.02
26.492,3.39,0.13,5.85,6.76
26.502,3.95,0.22,5.96,7.15
26.512,4.35,0.91,6.19,7.62
26.522,4.48,1.39,5.44,7.19
26.532,4.48,1.73,4.85,6.83
26.542,4.63,2.23,4.62,6.91
26.551,5.03,2.67,3.79,6.84
26.562,5.44,3.07,2.92,6.90
26.572,6.21,3.54,2.29,7.50
26.582,6.99,4.20,1.39,8.27
26.592,7.37,5.03,0.30,8.93
26.602,7.61,5.44,-1.00,9.40
26.612,7.69,5.70,-2.23,9.82
26.621,7.56,5.80,-3.43,10.12
26.632,7.10,6.01,-4.03,10.14
26.642,6.80,6.23,-4.64,10.32
26.652,6.24,6.06,-5.67,10.39
26.662,5.55,6.03,-5.66,9.96
26.672,5.26,5.34,-6.80,10.12
26.682,4.79,4.61,-7.24,9.83
26.692,4.13,4.05,-7.12,9.17
26.702,3.27,3.26,-7.31,8.65
26.712,2.26,2.44,-7.20,7.93
26.721,1.37,1.88,-6.88,7.27
26.731,0.75,1.60,-6.52,6.76
26.742,0.12,1.45,-6.38,6.54
26.752,-0.36,1.31,-6.31,6.45
26.761,-0.36,1.19,-6.46,6.58
26.771,-0.34,1.55,-6.01,6.22
26.781,-0.60,1.86,-5.81,6.13
26.791,-0.94,1.95,-5.83,6.22
26.801,-1.58,1.89,-5.92,6.42
26.811,-2.12,1.49,-5.63,6.20
26.821,-2.10,0.99,-4.53,5.09
26.831,-2.10,0.80,-3.32,4.01
26.841,-1.92,0.74,-2.71,3.41
26.851,-1.65,1.06,-2.38,3.09
26.861,-1.62,1.87,-2.49,3.51
26.871,-1.70,2.63,-2.69,4.13
26.881,-1.87,3.08,-3.06,4.73
26.891,-2.19,3.23,-3.28,5.10
26.901,-2.58,3.13,-3.08,5.09
26.911,-2.98,2.71,-2.71,4.86
26.921,-2.97,2.07,-2.19,4.23
26.931,-1.98,1.31,-1.54,2.83
26.941,-0.98,1.03,-1.01,1.74
26.951,-0.21,1.06,-0.27,1.11
26.961,0.41,1.20,0.05,1.27
26.971,0.63,1.62,-0.81,1.92
26.981,3.14,4.97,-3.70,6.94
26.991,10.07,15.12,5.30,18.92
27.001,1.58,4.38,4.48,6.46
27.011,-2.70,-5.37,-4.55,7.53
27.021,-2.14,-5.49,-2.42,6.37
27.031,-2.68,-1.55,0.32,3.11
27.041,-2.65,0.35,0.79,2.79
27.051,-0.86,-0.01,-0.25,0.90
27.061,0.97,0.35,0.21,1.05
27.071,2.45,0.27,0.02,2.46
27.081,2.32,-0.88,0.08,2.48
27.091,1.27,-1.60,0.04,2.05
27.101,0.30,-1.46,-0.32,1.52
27.111,-0.20,-0.80,-0.34,0.89
27.121,-0.46,-0.13,-0.34,0.59
27.131,-0.48,0.50,-0.22,0.72
27.141,-0.20,0.71,-0.37,0.82
27.151,-0.00,0.73,-1.07,1.29
27.161,0.17,0.71,-1.55,1.71
27.171,0.32,0.72,-1.54,1.73
27.181,0.30,0.72,-1.29,1.51
27.191,0.23,0.56,-1.02,1.19
27.201,0.27,0.52,-0.68,0.90
27.211,0.43,0.66,-0.42,0.89
27.221,0.54,0.64,-0.28,0.89
27.231,0.35,0.55,-0.15,0.67
27.241,0.21,0.52,-0.10,0.57
27.251,0.31,0.46,-0.18,0.59
27.261,0.34,0.51,-0.50,0.79
27.271,0.07,0.49,-0.35,0.61
27.281,0.08,0.46,-0.39,0.61
27.291,0.33,0.61,-0.43,0.81
27.301,0.54,0.63,-0.38,0.92
27.311,0.58,0.53,-0.40,0.88
27.321,0.56,0.54,-0.43,0.89
27.331,0.35,0.45,-0.48,0.75
27.341,0.29,0.56,-1.02,1.20
27.351,0.44,1.62,-3.48,3.86
27.360,0.86,2.60,-2.40,3.65
27.371,0.60,1.67,0.82,1.95
27.381,0.56,0.18,1.75,1.84
27.391,0.61,-0.45,1.60,1.77
27.400,0.16,-0.18,1.79,1.81
27.411,-0.18,0.22,1.34,1.37
27.421,-0.46,0.40,0.46,0.77
27.431,-0.59,0.62,-0.30,0.91
27.440,-0.16,1.19,-0.85,1.47
27.451,0.39,1.34,-1.06,1.75
