time,ax,ay,az,atotal
0.000,-0.12,-0.45,0.09,0.48
0.010,-0.07,-0.53,0.13,0.55
0.020,0.11,-0.56,0.22,0.61
0.030,0.21,-0.64,0.30,0.73
0.040,0.20,-0.72,0.33,0.82
0.050,0.36,-0.57,0.24,0.71
0.060,0.56,-0.50,0.12,0.76
0.070,0.67,-0.34,0.10,0.75
0.080,0.65,0.17,0.34,0.75
0.090,0.43,0.28,0.73,0.90
0.100,0.05,-0.03,1.11,1.11
0.110,-0.34,-0.33,1.22,1.31
0.120,-0.67,-0.68,1.72,1.97
0.130,-0.78,-0.97,1.99,2.35
0.140,-0.86,-1.14,1.99,2.45
0.150,-0.98,-1.37,1.74,2.42
0.160,-0.98,-1.60,1.32,2.29
0.170,-0.90,-1.70,0.83,2.09
0.180,-1.01,-1.72,0.38,2.03
0.190,-1.28,-1.66,0.42,2.14
0.200,-1.55,-1.57,0.60,2.29
0.210,-1.97,-1.53,0.74,2.60
0.220,-2.41,-1.41,1.10,3.00
0.230,-2.38,-1.30,1.15,2.94
0.240,-1.91,-1.20,0.50,2.31
0.250,-1.17,-1.07,-0.25,1.61
0.260,-0.37,-1.00,-0.95,1.43
0.270,0.19,-0.88,-1.39,1.66
0.280,0.38,-0.65,-1.25,1.46
0.290,0.18,-0.40,-0.77,0.89
0.300,-0.54,0.27,0.15,0.62
0.310,-1.03,0.92,0.77,1.58
0.319,-0.82,1.02,0.67,1.47
0.330,-0.42,0.84,0.29,0.98
0.340,-0.18,0.63,0.15,0.67
0.350,-0.09,0.36,0.08,0.38
0.360,0.21,0.47,-0.03,0.52
0.370,0.50,0.70,0.39,0.95
0.380,0.40,0.98,0.40,1.14
0.390,-0.07,1.19,0.87,1.47
0.400,-0.58,1.42,1.03,1.84
0.409,-0.81,1.53,1.19,2.10
0.420,-1.18,1.09,1.31,2.07
0.430,-1.45,0.39,1.09,1.85
0.440,-1.37,-0.02,0.95,1.67
0.449,-1.14,-0.30,0.87,1.46
0.460,-0.97,-0.52,0.65,1.27
0.469,-1.10,-0.43,0.86,1.46
0.479,-1.65,-0.33,1.61,2.32
0.489,-1.93,-0.22,1.58,2.51
0.499,-1.71,-0.06,1.21,2.10
0.509,-1.43,0.19,0.99,1.75
0.519,-1.24,0.46,0.86,1.57
0.529,-1.04,0.59,0.74,1.41
0.540,-0.79,0.47,0.48,1.04
0.549,-0.41,0.00,-0.02,0.41
0.559,-0.21,-0.70,-0.63,0.97
0.569,-0.27,-1.11,-0.93,1.47
0.579,-0.28,-1.01,-0.93,1.40
0.590,-0.28,-0.71,-0.80,1.11
0.599,-0.18,-0.59,-0.71,0.94
0.609,-0.03,-0.49,-0.60,0.78
0.619,-0.04,-0.50,-0.36,0.62
0.629,-0.20,-0.50,-0.20,0.57
0.639,-0.24,-0.47,-0.04,0.53
0.649,-0.28,-0.52,0.13,0.60
0.659,-0.26,-0.37,0.15,0.48
0.669,-0.04,-0.33,-0.08,0.35
0.679,0.27,-0.55,-0.40,0.73
0.689,0.43,-0.60,-0.44,0.86
0.699,0.72,0.61,-0.37,1.01
0.709,0.63,2.01,-0.64,2.20
0.719,0.30,3.32,-0.15,3.34
0.729,0.17,3.57,-0.11,3.58
0.739,0.00,2.14,-0.25,2.16
0.749,-0.27,0.17,-0.10,0.33
0.759,-0.61,-1.00,0.33,1.22
0.769,-0.82,-1.37,0.84,1.80
0.779,-0.60,-0.90,1.54,1.88
0.789,-0.27,-0.40,1.91,1.97
0.799,-0.04,-0.33,1.55,1.59
0.809,0.26,-0.59,1.20,1.36
0.819,0.92,-0.92,0.78,1.52
0.829,0.27,-1.61,-0.11,1.64
0.839,-0.36,-1.89,0.81,2.09
0.849,-0.58,-1.84,1.28,2.31
0.859,-0.82,-1.68,0.86,2.06
0.869,-0.41,-1.09,1.82,2.16
0.879,1.05,-1.35,3.05,3.50
0.889,1.09,-1.88,2.43,3.26
0.899,1.24,-1.35,4.30,4.68
0.909,1.62,-0.80,4.71,5.05
0.919,1.71,-0.68,4.33,4.71
0.929,1.36,-0.82,4.34,4.62
0.939,1.01,-0.86,3.98,4.20
0.949,0.78,-0.75,3.44,3.60
0.959,0.70,0.42,3.35,3.45
0.969,0.63,1.72,3.18,3.67
0.979,0.44,2.50,1.93,3.19
1.000,-0.20,3.12,1.09,3.31
1.000,-1.27,3.54,1.20,3.95
1.009,-2.24,3.63,1.51,4.52
1.018,-2.80,3.60,2.12,5.03
1.029,-3.22,3.04,2.97,5.33
1.039,-3.50,2.08,3.62,5.45
1.048,-3.65,1.84,3.23,5.21
1.058,-3.96,2.26,1.83,4.91
1.068,-4.49,2.81,0.91,5.37
1.079,-5.16,3.26,0.39,6.12
1.089,-5.79,3.75,0.76,6.94
1.099,-5.68,3.88,1.82,7.12
1.109,-5.12,3.20,2.61,6.58
1.118,-4.72,2.38,2.65,5.91
1.128,-4.15,2.35,2.18,5.24
1.139,-4.01,2.92,1.74,5.26
1.148,-4.27,3.80,1.85,6.01
1.159,-4.34,4.78,2.12,6.80
1.168,-4.79,5.78,2.97,8.07
1.178,-4.92,6.90,4.08,9.41
1.189,-3.76,7.62,4.64,9.68
1.198,-2.04,7.20,3.80,8.39
1.208,-0.46,5.94,1.92,6.26
1.218,0.40,4.64,0.86,4.74
1.228,0.96,3.16,-0.26,3.31
1.239,1.26,1.84,-1.68,2.79
1.248,1.09,1.05,-2.28,2.74
1.259,1.16,1.15,-2.29,2.81
1.268,1.54,0.73,-2.63,3.13
1.278,1.81,0.01,-2.55,3.13
1.289,1.95,0.06,-2.73,3.36
1.298,1.82,0.68,-3.47,3.98
1.309,1.54,1.51,-4.59,5.08
1.318,1.07,2.29,-5.37,5.93
1.328,0.74,2.95,-5.24,6.06
1.338,0.79,3.14,-4.68,5.69
1.348,1.29,3.00,-3.86,5.06
1.358,1.86,2.81,-3.40,4.79
1.368,2.47,2.77,-3.30,4.96
1.378,3.13,3.05,-3.22,5.43
1.388,3.59,3.43,-3.22,5.92
1.398,4.07,3.89,-3.33,6.54
1.409,4.39,4.49,-2.55,6.77
1.418,4.78,5.09,-1.25,7.09
1.428,5.49,5.26,-0.70,7.63
1.438,5.95,4.99,0.13,7.77
1.448,6.20,4.35,0.65,7.60
1.458,6.12,3.50,0.10,7.05
1.468,5.79,2.64,-0.75,6.41
1.478,5.25,2.12,-1.41,5.83
1.488,4.67,1.83,-2.16,5.46
1.498,3.87,1.39,-2.66,4.90
1.508,3.21,0.59,-2.90,4.37
1.518,2.83,-0.07,-3.04,4.15
1.528,2.55,-0.63,-3.10,4.07
1.538,2.38,-0.96,-2.96,3.91
1.548,2.49,-1.03,-2.73,3.83
1.558,2.57,-1.17,-2.48,3.75
1.568,2.53,-1.13,-1.82,3.31
1.578,2.55,-1.05,-1.28,3.04
1.588,2.55,-1.16,-1.05,2.99
1.598,2.49,-1.01,-0.76,2.80
1.608,2.46,-0.99,-0.57,2.71
1.618,2.47,-1.29,-0.80,2.90
1.628,2.36,-1.55,-0.80,2.94
1.638,2.42,-1.73,-0.84,3.09
1.648,2.30,-2.16,-0.56,3.20
1.658,2.10,-2.93,-0.09,3.60
1.668,2.02,-3.74,0.61,4.30
1.678,1.65,-4.80,0.62,5.11
1.688,1.59,-4.95,0.94,5.28
1.698,1.35,-5.34,0.54,5.54
1.708,1.07,-5.84,0.63,5.97
1.718,1.31,-5.31,1.46,5.66
1.728,1.90,-3.37,1.66,4.21
1.738,2.52,-3.03,1.38,4.18
1.748,2.23,-3.06,2.65,4.62
1.758,2.42,-1.74,2.76,4.06
1.768,2.33,-1.13,3.07,4.02
1.777,2.07,-0.72,2.99,3.71
1.787,1.85,-0.28,2.49,3.12
1.797,1.62,0.23,1.57,2.27
1.808,1.37,1.10,0.91,1.97
1.818,1.28,1.91,-0.25,2.31
1.827,1.07,2.03,-0.51,2.35
1.837,0.80,1.79,-0.32,1.99
1.847,0.70,1.37,-0.13,1.55
1.858,0.39,0.70,0.12,0.81
1.868,-0.03,-0.10,0.43,0.44
1.877,-0.51,-0.91,0.75,1.28
1.887,-0.68,-0.96,0.47,1.27
1.897,-0.49,-0.35,-0.44,0.75
1.907,-0.43,0.31,-0.18,0.55
1.917,-0.39,0.57,-0.06,0.70
1.927,-0.65,0.16,0.29,0.73
1.937,-0.96,-0.74,0.54,1.33
1.947,-1.22,-1.81,0.64,2.28
1.957,-1.42,-2.62,0.65,3.05
1.967,-1.50,-3.07,0.44,3.44
1.977,-1.58,-3.08,0.10,3.46
1.987,-1.74,-2.94,-0.39,3.43
1.997,-2.13,-2.76,-0.10,3.49
2.008,-2.38,-2.69,-0.02,3.59
2.017,-2.48,-2.95,0.17,3.86
2.027,-2.02,-2.67,0.47,3.38
2.037,-0.76,-1.51,0.08,1.69
2.047,0.33,-0.57,-0.87,1.09
2.057,1.20,-0.34,-2.29,2.61
2.067,1.95,-0.71,-3.17,3.79
2.077,2.56,-0.89,-3.44,4.38
2.087,2.43,-0.50,-1.46,2.88
2.097,1.74,0.78,2.29,2.98
2.107,1.95,2.00,2.38,3.67
2.117,1.65,1.87,1.65,2.99
2.127,0.39,1.24,2.22,2.58
2.137,-0.20,0.73,1.86,2.01
2.147,-0.00,0.32,1.13,1.18
2.157,0.25,0.11,1.31,1.33
2.167,0.34,-0.08,1.43,1.47
2.177,0.58,-0.14,0.57,0.83
2.187,0.86,0.25,-0.15,0.91
2.197,1.04,1.40,0.01,1.75
2.207,1.08,2.32,1.26,2.86
2.217,1.21,2.39,1.67,3.16
2.227,1.17,2.30,1.59,3.03
2.237,0.78,1.97,1.90,2.85
2.247,0.25,1.42,1.90,2.38
2.257,0.12,1.14,1.59,1.96
2.267,0.14,1.22,1.34,1.82
2.277,0.29,1.32,1.18,1.79
2.287,0.55,1.34,0.57,1.56
2.297,0.61,1.23,0.17,1.38
2.307,-0.16,0.82,0.47,0.95
2.317,-1.08,0.49,0.20,1.20
2.327,-1.96,-0.09,-0.34,1.99
2.337,-2.69,-0.56,-0.95,2.91
2.347,-2.52,-0.42,-1.23,2.83
2.357,-2.62,-0.76,-1.24,3.00
2.367,-2.09,0.21,0.79,2.25
2.377,-0.54,0.79,-1.96,2.18
2.386,-1.19,-1.52,-1.45,2.41
2.397,-1.48,-1.34,0.10,1.99
2.407,-1.11,-0.55,-0.91,1.54
2.417,-0.96,-0.55,-2.14,2.41
2.427,-1.19,-0.50,-1.74,2.17
2.436,-1.17,-0.27,-1.35,1.80
2.447,-1.14,-1.15,-1.61,2.29
2.457,-1.24,-1.19,-1.54,2.31
2.467,-1.03,-0.28,0.06,1.07
2.476,-0.10,0.61,1.07,1.24
2.486,0.97,1.28,1.97,2.54
2.496,1.47,1.02,2.78,3.31
2.507,1.56,0.85,2.64,3.18
2.516,1.65,0.95,0.90,2.10
2.526,0.87,0.11,0.03,0.87
2.536,-0.56,-1.08,0.03,1.22
2.546,-1.74,-1.89,0.54,2.62
2.556,-1.44,-2.26,0.66,2.76
2.566,-0.53,-2.01,0.25,2.10
2.576,-1.01,-1.46,0.32,1.80
2.586,-1.23,-0.44,-0.05,1.30
2.596,-1.64,0.01,0.42,1.69
2.607,-0.98,0.71,0.74,1.42
2.616,-0.07,1.14,0.70,1.34
2.626,0.88,1.39,0.77,1.81
2.636,1.70,1.08,-0.11,2.02
2.646,1.79,0.47,0.01,1.85
2.656,1.36,-0.34,0.25,1.43
2.666,0.90,-0.96,0.30,1.35
2.676,0.08,-1.51,0.45,1.57
2.686,-0.22,-1.43,0.27,1.47
2.696,-0.36,-1.82,-0.11,1.86
2.706,-0.20,-2.19,0.08,2.20
2.716,-0.16,-2.46,0.21,2.48
2.726,-0.43,-2.45,0.60,2.56
2.736,-0.11,-1.86,0.64,1.97
2.746,0.85,-0.11,0.83,1.19
2.756,0.94,1.01,1.40,1.97
2.766,1.07,1.61,0.84,2.11
2.776,0.83,1.44,0.37,1.70
2.786,0.55,1.18,0.35,1.35
2.796,-0.14,0.91,0.31,0.97
2.806,-0.82,0.47,0.23,0.97
2.816,-0.96,0.82,0.26,1.28
2.826,-0.73,1.47,-0.09,1.65
2.836,-0.55,1.64,-0.61,1.84
2.846,-0.49,1.56,-0.76,1.80
2.856,-0.02,1.82,-0.59,1.92
2.866,0.33,1.63,-0.27,1.69
2.876,0.34,1.07,0.09,1.12
2.886,0.14,0.56,0.18,0.60
2.896,-0.30,0.25,0.08,0.39
2.906,-0.61,0.08,0.56,0.84
2.916,-0.58,0.16,0.73,0.95
2.926,-0.64,0.56,0.33,0.92
2.936,-0.61,1.03,0.03,1.20
2.946,-0.25,1.38,0.25,1.42
2.956,0.03,1.42,0.49,1.50
2.966,0.15,1.21,0.54,1.34
2.976,0.11,0.84,0.43,0.95
2.986,0.09,0.48,0.37,0.61
2.996,0.30,0.10,0.63,0.70
3.006,0.41,-0.02,0.24,0.48
3.016,0.27,0.05,-0.12,0.30
3.026,-0.01,-0.38,-0.13,0.41
3.036,-0.49,-1.87,0.70,2.06
3.046,-1.02,-3.22,0.72,3.45
3.056,-1.46,-4.34,0.88,4.67
3.066,-2.03,-5.35,0.96,5.80
3.076,-2.49,-5.90,0.90,6.47
3.086,-2.65,-5.92,0.42,6.50
3.096,-2.41,-6.07,0.67,6.57
3.105,-1.84,-6.00,0.34,6.29
3.115,-1.54,-5.66,-0.45,5.88
3.126,-1.72,-5.47,-1.32,5.88
3.135,-1.91,-5.46,-1.99,6.12
3.146,-1.89,-5.08,-2.50,5.97
3.156,-1.58,-3.95,-2.76,5.07
3.165,-1.25,-2.77,-2.39,3.86
3.176,-1.09,-2.16,-1.82,3.02
3.185,-0.87,-2.04,-1.14,2.49
3.195,-0.14,-2.03,-0.45,2.09
3.205,2.10,-0.25,0.08,2.11
3.215,6.00,7.08,-1.07,9.34
3.226,9.00,17.61,-4.38,20.26
3.236,8.37,24.36,-5.21,26.28
3.246,4.48,22.48,-2.92,23.11
3.256,0.75,13.06,-0.07,13.08
3.265,-1.31,4.29,1.77,4.82
3.275,-1.80,-0.44,2.49,3.10
3.285,-1.44,-2.80,2.05,3.76
3.295,-0.78,-3.60,1.27,3.90
3.305,-0.17,-3.26,0.70,3.34
3.315,0.13,-2.40,0.42,2.44
3.325,0.13,-1.51,0.51,1.60
3.335,0.12,-1.10,0.80,1.36
3.345,0.18,-1.12,0.87,1.43
3.355,0.23,-1.91,0.31,1.95
3.365,0.29,-2.22,-0.40,2.28
3.375,0.79,-2.19,0.07,2.33
3.385,1.66,-2.26,0.11,2.81
3.395,1.09,-2.64,-1.32,3.14
3.405,0.17,-3.27,-1.35,3.54
3.415,-0.12,-2.85,-2.67,3.91
3.425,0.16,-0.89,-6.80,6.86
3.435,-0.11,0.11,-2.76,2.76
3.445,0.11,2.26,-0.02,2.26
3.455,0.17,2.69,1.64,3.15
3.465,0.18,1.87,3.03,3.57
3.475,0.35,0.39,3.02,3.06
3.485,0.68,-0.32,2.01,2.14
3.495,1.03,-0.34,0.95,1.44
3.505,1.29,-0.19,-0.03,1.31
3.515,1.44,-0.02,-0.56,1.55
3.525,1.57,0.08,-0.73,1.74
3.535,1.74,0.05,-0.81,1.92
3.545,1.89,-0.10,-0.85,2.08
3.555,1.97,-0.28,-0.83,2.15
3.565,2.02,-0.38,-0.78,2.20
3.575,2.12,-0.38,-0.83,2.31
3.585,2.18,-0.34,-0.89,2.38
3.595,2.15,-0.25,-0.84,2.33
3.605,2.06,-0.03,-0.61,2.15
3.615,1.90,0.29,-0.21,1.93
3.625,1.67,0.64,0.32,1.82
3.635,1.46,1.00,0.86,1.97
3.645,1.21,1.30,1.23,2.16
3.655,0.87,1.54,1.34,2.22
3.665,0.44,1.74,1.25,2.19
3.675,-0.06,1.84,1.07,2.14
3.685,-0.62,1.84,0.96,2.17
3.695,-1.13,1.63,1.01,2.23
3.705,-1.46,1.19,1.20,2.23
3.715,-1.52,0.56,1.38,2.13
3.725,-1.37,-0.17,1.41,1.98
3.735,-1.13,-0.84,1.24,1.88
3.745,-0.93,-1.28,0.74,1.74
3.754,-0.92,-1.52,-0.02,1.78
3.765,-1.06,-1.58,-0.80,2.06
3.775,-1.27,-1.43,-1.38,2.36
3.785,-1.50,-1.02,-1.73,2.51
3.795,-1.79,-0.50,-2.07,2.78
3.804,-2.22,-0.03,-2.63,3.44
3.815,-2.81,0.26,-3.38,4.40
3.825,-3.41,0.26,-3.98,5.25
3.835,-3.59,-0.08,-4.14,5.48
3.844,-2.33,-1.00,-3.17,4.06
3.854,-0.49,-2.08,-1.48,2.60
3.864,0.61,-2.55,-0.02,2.62
3.875,1.00,-2.25,0.74,2.57
3.885,0.65,-1.19,0.36,1.41
3.894,-0.17,0.29,-0.67,0.75
3.904,-0.86,1.91,-1.37,2.50
3.914,-1.16,3.24,-1.72,3.85
3.924,-1.18,4.19,-1.57,4.63
3.934,-1.11,4.35,-1.11,4.62
3.944,-1.13,3.51,-0.87,3.79
3.954,-1.04,2.11,-0.81,2.49
3.964,-0.75,0.84,-0.89,1.43
3.974,-0.33,-0.25,-0.89,0.98
3.984,0.16,-1.14,-0.77,1.39
3.994,0.63,-1.70,-0.65,1.92
4.004,0.93,-1.93,-0.56,2.22
4.014,1.05,-2.08,-0.51,2.39
4.024,1.00,-2.17,-0.55,2.45
4.034,0.90,-2.05,-0.68,2.34
4.044,0.76,-1.63,-0.94,2.03
4.054,0.58,-1.01,-1.16,1.64
4.064,0.37,-0.50,-1.28,1.42
4.074,0.21,-0.35,-1.36,1.42
4.084,0.14,-0.41,-1.37,1.43
4.094,0.04,-0.50,-1.31,1.40
4.104,-0.02,-0.50,-1.26,1.35
4.114,0.04,-0.44,-1.23,1.31
4.124,0.16,-0.31,-1.23,1.28
4.134,0.34,-0.11,-1.21,1.26
4.144,0.51,0.19,-1.10,1.23
4.154,0.65,0.63,-1.04,1.38
4.164,0.75,1.19,-1.08,1.77
4.174,0.75,1.78,-1.23,2.29
4.184,0.66,2.33,-1.36,2.78
4.194,0.49,2.78,-1.38,3.15
4.204,0.20,3.14,-1.25,3.38
4.214,-0.19,3.43,-1.08,3.60
4.224,-0.54,3.74,-0.93,3.89
4.234,-0.64,4.14,-0.69,4.25
4.244,-0.28,4.73,-0.34,4.75
4.254,0.54,5.53,0.04,5.55
4.264,1.27,6.29,0.35,6.43
4.274,1.27,6.56,0.30,6.69
4.284,0.44,6.44,-0.35,6.46
4.294,-0.68,6.19,-1.32,6.37
4.304,-1.58,6.19,-2.02,6.70
4.314,-2.11,6.69,-2.11,7.33
4.324,-1.99,7.47,-1.93,7.97
4.334,-1.38,7.81,-1.84,8.14
4.344,-0.74,6.75,-1.81,7.03
4.354,-0.06,5.17,-1.78,5.47
4.364,0.42,3.84,-1.85,4.29
4.374,0.63,2.51,-1.98,3.26
4.384,0.67,1.27,-2.07,2.52
4.394,0.76,0.01,-1.96,2.10
4.403,0.93,-1.45,-1.61,2.36
4.414,1.09,-2.98,-1.16,3.38
4.424,1.18,-4.38,-0.69,4.59
4.434,1.10,-5.57,-0.18,5.68
4.444,0.83,-6.51,0.41,6.57
4.453,0.47,-7.15,1.04,7.24
4.464,0.05,-7.59,1.45,7.73
4.473,-0.47,-7.79,1.59,7.96
4.484,-1.02,-7.73,1.36,7.92
4.494,-1.63,-7.41,0.89,7.63
4.504,-2.31,-6.94,0.56,7.34
4.514,-2.99,-6.05,0.12,6.75
4.523,-3.56,-4.72,-0.28,5.92
4.534,-3.96,-3.11,-0.41,5.05
4.544,-4.11,-1.49,-0.62,4.41
4.553,-4.05,0.14,-0.73,4.12
4.563,-3.73,1.64,-0.85,4.16
4.573,-3.26,2.92,-0.60,4.41
4.583,-2.79,3.73,0.31,4.67
4.593,-2.40,3.53,1.56,4.55
4.603,-1.84,1.81,2.92,3.89
4.613,-1.01,0.25,3.88,4.02
4.623,-0.37,-0.38,4.01,4.05
4.633,0.10,-0.71,3.45,3.52
4.644,0.69,-0.81,2.33,2.56
4.653,1.33,-0.80,1.10,1.90
4.663,1.76,-0.76,0.26,1.94
4.673,1.88,-0.74,-0.12,2.02
4.683,1.87,-0.71,-0.21,2.01
4.693,1.76,-0.49,-0.05,1.82
4.703,1.66,-0.47,0.06,1.73
4.713,1.59,-0.76,0.16,1.77
4.723,1.40,-1.06,0.27,1.78
4.733,1.19,-1.20,0.33,1.72
4.743,0.99,-1.09,0.42,1.53
4.753,0.87,-1.06,0.34,1.41
4.763,0.76,-1.20,0.27,1.45
4.773,0.66,-1.32,0.26,1.49
4.783,0.48,-1.55,0.31,1.66
4.793,0.15,-1.91,0.35,1.95
4.803,-0.18,-2.34,0.31,2.36
4.813,-0.38,-2.74,0.14,2.77
4.823,-0.49,-3.11,-0.11,3.15
4.833,-0.53,-3.45,-0.39,3.51
4.843,-0.54,-3.77,-0.70,3.87
4.853,-0.55,-4.07,-0.93,4.21
4.863,-0.54,-4.32,-1.08,4.48
4.873,-0.46,-4.37,-1.06,4.52
4.883,-0.33,-4.13,-0.96,4.26
4.893,-0.15,-3.60,-0.89,3.71
4.903,0.07,-2.91,-0.93,3.05
4.913,0.31,-2.11,-0.96,2.34
4.923,0.65,-1.10,-0.59,1.41
4.933,1.20,-0.09,0.00,1.21
4.943,2.00,1.06,1.02,2.48
4.953,2.41,3.77,2.71,5.23
4.963,2.15,7.43,3.15,8.35
4.973,1.73,9.77,1.20,10.00
4.983,1.28,10.79,-0.95,10.90
4.994,0.77,11.38,-2.05,11.59
5.004,-0.32,11.35,-1.48,11.45
5.014,-1.46,10.44,-0.69,10.56
5.022,-1.59,8.41,-0.57,8.58
5.032,0.07,6.34,-0.17,6.34
5.043,2.03,5.41,-0.10,5.78
5.053,3.01,4.04,-0.64,5.08
5.063,2.99,2.58,-0.89,4.05
5.072,2.34,1.46,-0.96,2.92
5.083,1.27,0.59,-0.37,1.45
5.093,0.11,0.31,1.21,1.25
5.103,-0.72,0.15,2.43,2.54
5.113,-1.17,-0.21,2.72,2.97
5.123,-1.49,-0.59,2.21,2.73
5.133,-1.88,-1.21,1.56,2.72
5.143,-2.31,-2.06,1.13,3.29
5.153,-2.75,-3.11,0.96,4.27
5.163,-3.18,-4.15,0.94,5.31
5.172,-3.55,-4.95,0.91,6.16
5.182,-4.04,-5.41,0.85,6.81
5.193,-4.68,-5.56,0.69,7.30
5.203,-5.43,-5.37,0.53,7.66
5.212,-6.12,-4.84,0.36,7.81
5.222,-6.49,-4.07,0.06,7.66
5.232,-6.38,-3.10,-0.44,7.11
5.243,-5.59,-1.95,-0.92,5.99
5.252,-3.69,-1.11,-0.78,3.94
5.262,-1.49,-0.39,-0.47,1.61
5.272,0.26,0.53,-0.47,0.75
5.282,1.42,1.66,-0.49,2.23
5.292,2.17,2.63,-0.52,3.45
5.303,2.56,2.86,-0.47,3.87
5.312,2.71,2.12,-0.25,3.45
5.322,2.73,0.91,-0.06,2.88
5.332,2.65,-0.39,-0.18,2.68
5.342,2.35,-1.55,-0.58,2.87
5.352,1.85,-2.10,-1.13,3.02
5.362,1.25,-2.13,-1.65,2.98
5.372,0.62,-2.03,-1.88,2.84
5.382,0.03,-1.89,-1.94,2.71
5.392,-0.52,-1.66,-1.84,2.53
5.402,-0.96,-1.28,-1.49,2.19
5.412,-1.19,-0.81,-0.86,1.68
5.422,-1.18,-0.41,0.00,1.25
5.432,-1.08,-0.27,0.85,1.41
5.442,-0.97,-0.34,1.40,1.74
5.452,-0.88,-0.55,1.44,1.77
5.462,-0.89,-0.88,1.03,1.62
5.472,-0.98,-1.28,0.39,1.66
5.482,-1.03,-1.60,-0.31,1.92
5.492,-0.93,-1.87,-1.02,2.32
5.502,-0.69,-2.11,-1.64,2.76
5.512,-0.41,-2.24,-2.14,3.13
5.522,-0.13,-2.19,-2.44,3.28
5.532,-0.02,-2.05,-2.48,3.21
5.542,-0.16,-1.99,-2.29,3.04
5.552,-0.40,-2.04,-1.97,2.86
5.562,-0.50,-2.09,-1.60,2.68
5.572,-0.42,-2.01,-1.13,2.34
5.582,-0.30,-1.74,-0.63,1.88
5.592,-0.17,-1.37,-0.37,1.43
5.602,-0.10,-0.87,-0.39,0.95
5.612,-0.14,-0.20,-0.63,0.67
5.622,-0.22,0.62,-0.91,1.13
5.632,-0.27,1.51,-1.01,1.84
5.642,-0.31,2.31,-0.85,2.48
5.652,-0.32,2.98,-0.67,3.07
5.662,-0.17,3.49,-0.32,3.50
5.671,0.22,4.21,0.26,4.23
5.682,1.15,5.54,0.52,5.68
5.692,2.84,6.96,0.38,7.53
5.702,4.68,7.20,0.48,8.60
5.712,5.30,5.98,0.96,8.05
5.722,3.68,4.41,1.07,5.84
5.732,1.20,3.77,0.84,4.04
5.742,-0.78,4.06,0.58,4.17
5.752,-2.05,5.07,0.18,5.47
5.762,-2.70,6.37,-0.09,6.92
5.771,-2.97,7.31,-0.26,7.89
5.781,-3.27,7.35,-0.34,8.06
5.791,-3.73,6.44,-0.33,7.45
5.802,-3.80,5.64,-0.41,6.82
5.812,-3.25,5.21,-0.07,6.14
5.822,-2.42,4.34,0.39,4.99
5.831,-1.60,2.85,0.32,3.29
5.842,-0.88,1.02,-0.06,1.35
5.851,-0.30,-0.86,-0.25,0.95
5.862,0.13,-2.43,-0.13,2.44
5.871,0.50,-3.69,0.01,3.72
5.881,0.79,-4.80,0.16,4.87
5.891,0.97,-5.88,0.41,5.97
5.902,1.01,-6.93,0.72,7.04
5.911,0.89,-7.78,0.91,7.89
5.921,0.61,-8.38,0.84,8.44
5.931,0.29,-8.76,0.37,8.78
5.942,-0.07,-8.96,-0.25,8.97
5.951,-0.34,-8.86,-0.87,8.91
5.961,-0.42,-7.73,-1.41,7.87
5.971,-0.36,-5.70,-1.82,5.99
5.981,-0.28,-3.60,-2.12,4.19
5.991,-0.16,-1.35,-1.99,2.41
6.001,-0.08,1.06,-1.40,1.76
6.011,0.08,2.84,-1.16,3.07
6.021,0.61,5.23,-1.15,5.39
6.031,1.25,7.88,-0.76,8.01
6.041,0.98,8.50,0.85,8.60
6.051,0.02,5.82,3.06,6.58
6.061,0.03,2.12,4.48,4.95
6.071,0.52,0.07,4.15,4.18
6.081,0.97,-1.05,2.78,3.13
6.091,1.12,-1.59,1.48,2.44
6.101,0.99,-1.66,0.39,1.97
6.111,0.83,-1.56,-0.32,1.80
6.121,0.86,-1.54,-0.41,1.81
6.131,0.97,-1.60,-0.21,1.88
6.141,0.91,-1.75,-0.15,1.98
6.151,0.71,-2.02,-0.58,2.22
6.161,0.44,-2.12,-0.76,2.29
6.171,0.13,-1.85,-0.65,1.97
6.181,-0.11,-1.38,-0.47,1.46
6.191,-0.27,-1.18,-0.35,1.26
6.201,-0.34,-1.25,-0.14,1.30
6.211,-0.31,-1.35,0.24,1.41
6.221,-0.22,-1.47,0.64,1.62
6.231,-0.12,-1.71,0.96,1.96
6.241,-0.06,-1.90,1.03,2.16
6.251,-0.02,-2.06,0.67,2.17
6.261,0.02,-2.45,-0.00,2.45
6.271,0.05,-3.07,-0.73,3.15
6.281,0.01,-3.56,-1.43,3.84
6.291,-0.03,-3.71,-2.08,4.25
6.301,0.06,-3.59,-2.66,4.47
6.311,0.25,-3.11,-3.08,4.38
6.321,0.52,-2.43,-3.40,4.21
6.331,0.98,-1.61,-3.32,3.81
6.341,1.99,-0.53,-2.42,3.17
6.351,3.40,0.64,-0.71,3.53
6.361,4.20,3.34,1.73,5.64
6.371,3.59,7.79,2.51,8.94
6.381,2.16,10.90,0.87,11.15
6.391,0.71,11.54,0.51,11.57
6.402,0.01,11.96,0.68,11.98
6.412,-1.46,11.87,1.17,12.02
6.421,-2.82,10.35,0.56,10.74
6.430,-2.19,6.94,-0.47,7.29
6.440,0.64,3.61,0.14,3.67
6.451,2.61,2.23,0.32,3.45
6.460,3.36,0.92,-0.55,3.53
6.471,3.66,-0.37,-1.78,4.09
6.480,3.35,-1.88,-2.31,4.48
6.490,2.39,-3.27,-1.47,4.31
6.501,1.17,-3.60,0.24,3.79
6.510,-0.32,-3.05,1.54,3.43
6.521,-1.52,-3.02,1.81,3.84
6.530,-2.20,-3.26,1.47,4.19
6.540,-2.63,-3.44,0.96,4.44
6.551,-3.21,-3.69,0.60,4.92
6.560,-3.99,-4.01,0.35,5.67
6.570,-4.92,-4.19,0.28,6.46
6.581,-5.88,-4.22,0.50,7.26
6.590,-6.67,-4.13,0.79,7.89
6.601,-7.07,-3.87,1.01,8.12
6.610,-6.89,-3.46,0.88,7.76
6.620,-6.00,-3.31,0.52,6.88
6.630,-4.55,-3.48,0.28,5.74
6.640,-3.29,-2.84,0.01,4.34
6.650,-2.28,-1.31,-0.20,2.64
6.660,-1.34,0.68,-0.48,1.58
6.670,-0.27,2.55,-0.94,2.73
6.680,1.01,4.10,-1.29,4.41
6.690,2.38,5.08,-1.01,5.70
6.700,3.40,4.69,0.17,5.80
6.710,3.55,2.83,1.39,4.75
6.720,2.99,0.81,1.93,3.66
6.730,2.37,-0.84,1.64,3.00
6.740,1.73,-2.16,0.64,2.84
6.750,1.12,-2.93,-0.44,3.16
6.760,0.47,-3.13,-1.17,3.38
6.770,-0.15,-3.03,-1.48,3.37
6.780,-0.72,-2.88,-1.64,3.40
6.790,-1.21,-2.73,-1.78,3.47
6.800,-1.66,-2.64,-1.85,3.63
6.810,-2.05,-2.40,-1.51,3.50
6.820,-2.31,-1.96,-0.76,3.13
6.830,-2.40,-1.53,0.16,2.85
6.840,-2.13,-1.04,1.01,2.57
6.850,-1.67,-0.64,1.54,2.36
6.860,-1.16,-0.52,1.51,1.97
6.870,-0.66,-0.79,0.76,1.28
6.880,-0.15,-1.18,-0.40,1.26
6.890,0.26,-1.48,-1.68,2.25
6.900,0.59,-1.45,-2.73,3.15
6.910,0.81,-1.16,-3.37,3.66
6.920,0.86,-0.92,-3.59,3.80
6.930,0.70,-0.81,-3.37,3.53
6.940,0.53,-0.77,-2.80,2.95
6.950,0.50,-0.81,-2.15,2.35
6.960,0.56,-0.89,-1.51,1.84
6.970,0.62,-0.74,-0.95,1.35
6.980,0.67,-0.10,-0.49,0.83
6.990,0.67,1.13,-0.23,1.34
7.000,0.55,2.76,-0.21,2.82
7.010,0.28,4.60,-0.32,4.62
7.020,-0.14,6.31,-0.55,6.33
7.030,-0.73,7.59,-0.26,7.63
7.040,-0.98,8.05,0.99,8.17
7.050,-0.13,7.71,1.57,7.87
7.060,1.98,6.74,1.26,7.14
7.070,3.68,5.04,0.97,6.31
7.080,3.72,3.32,0.61,5.03
7.089,2.54,2.19,0.28,3.36
7.100,0.75,2.27,-0.13,2.40
7.109,-1.09,3.11,-0.60,3.35
7.120,-2.38,4.39,-1.03,5.09
7.130,-2.89,5.92,-1.25,6.70
7.139,-2.76,6.97,-0.25,7.50
7.150,-2.46,6.79,0.33,7.23
7.159,-2.22,5.83,0.04,6.24
7.170,-1.96,4.49,-0.03,4.90
7.180,-1.52,2.92,-0.27,3.30
7.189,-1.29,1.41,-0.35,1.94
7.199,-1.26,-0.08,-0.24,1.28
7.209,-1.17,-1.61,0.05,2.00
7.220,-0.98,-3.12,0.45,3.30
7.229,-0.64,-4.56,0.80,4.68
7.239,-0.30,-5.78,1.02,5.88
7.249,-0.03,-6.88,1.07,6.96
7.260,-0.00,-7.90,0.79,7.94
7.269,-0.17,-8.76,0.13,8.77
7.280,-0.47,-9.46,-0.55,9.49
7.289,-0.72,-9.96,-1.03,10.03
7.300,-0.67,-9.61,-1.35,9.72
7.310,-0.43,-8.06,-1.67,8.24
7.320,-0.20,-6.13,-2.20,6.51
7.329,0.11,-4.13,-2.59,4.88
7.339,0.55,-1.75,-2.56,3.14
7.349,1.13,0.91,-1.97,2.45
7.359,1.63,3.54,-1.19,4.07
7.369,2.03,6.73,-0.66,7.06
7.379,2.61,10.56,-0.33,10.88
7.389,2.44,12.35,0.90,12.63
7.399,1.15,8.65,3.31,9.33
7.409,0.48,3.17,4.80,5.77
7.419,0.55,-0.06,4.44,4.47
7.429,0.94,-1.93,3.31,3.94
7.439,1.12,-3.03,2.17,3.89
7.449,1.02,-3.75,1.00,4.01
7.459,0.74,-3.75,0.29,3.83
7.469,0.33,-3.10,-0.52,3.16
7.479,-0.22,-2.41,-1.28,2.74
7.489,-0.77,-2.06,-1.69,2.77
7.499,-1.03,-1.99,-1.65,2.78
7.509,-0.76,-1.98,-1.02,2.36
7.519,-0.27,-1.96,-0.15,1.99
7.529,0.03,-1.97,0.66,2.08
7.539,-0.03,-2.15,1.27,2.50
7.549,-0.18,-2.27,1.56,2.76
7.559,-0.25,-2.11,1.45,2.57
7.569,-0.21,-1.95,0.88,2.15
7.579,-0.08,-1.93,0.01,1.93
7.589,0.02,-2.02,-0.94,2.23
7.599,0.12,-2.17,-1.85,2.86
7.609,0.29,-2.29,-2.63,3.50
7.619,0.54,-2.24,-3.29,4.02
7.629,0.89,-2.00,-3.87,4.45
7.639,1.30,-1.60,-4.20,4.68
7.649,1.90,-0.82,-3.72,4.26
7.659,2.95,0.70,-1.86,3.55
7.669,4.35,3.01,0.64,5.33
7.679,4.95,6.42,2.89,8.60
7.689,4.47,9.78,2.41,11.02
7.699,2.61,10.96,1.36,11.35
7.709,0.68,11.21,1.35,11.31
7.720,-1.66,11.44,2.00,11.74
7.730,-4.32,9.93,2.05,11.02
7.738,-4.54,7.32,0.34,8.62
7.748,-1.66,4.39,0.29,4.70
7.758,1.04,2.61,0.41,2.84
7.769,2.26,0.56,-0.63,2.41
7.779,3.20,-1.66,-1.97,4.11
7.789,3.65,-4.11,-2.98,6.25
7.799,3.19,-6.05,-2.02,7.13
7.809,2.11,-6.68,-0.07,7.01
7.819,0.15,-6.15,1.13,6.26
7.829,-2.14,-5.55,1.32,6.10
7.838,-3.58,-5.70,1.07,6.81
7.848,-4.35,-5.76,0.72,7.25
7.858,-4.89,-5.42,0.41,7.31
7.869,-5.59,-4.66,0.13,7.28
7.878,-6.51,-3.52,-0.18,7.40
7.888,-7.34,-2.05,-0.31,7.62
7.898,-7.81,-0.27,0.10,7.81
7.909,-7.64,1.23,0.72,7.77
7.919,-6.53,1.74,1.11,6.85
7.928,-4.26,0.90,1.34,4.56
7.939,-1.94,0.06,1.17,2.26
7.948,0.03,0.39,0.83,0.92
7.958,1.55,1.34,0.35,2.08
7.968,2.32,2.18,-0.30,3.20
7.978,2.64,2.96,-0.78,4.04
7.988,2.83,3.41,-0.90,4.52
7.998,2.98,3.36,-0.31,4.51
8.008,2.76,2.43,0.59,3.72
8.018,2.22,1.27,1.13,2.80
8.028,1.80,0.34,1.16,2.17
8.038,1.37,-0.55,0.74,1.65
8.048,0.78,-1.26,0.11,1.48
8.058,-0.03,-1.78,-0.34,1.81
8.068,-0.94,-2.14,-0.70,2.44
8.078,-1.65,-2.33,-1.05,3.05
8.088,-2.17,-2.45,-1.34,3.54
8.098,-2.44,-2.61,-1.39,3.83
8.108,-2.42,-2.88,-1.10,3.92
8.118,-2.29,-3.29,-0.53,4.04
8.128,-2.02,-3.65,0.11,4.18
8.138,-1.65,-3.84,0.30,4.19
8.148,-1.24,-3.99,-0.15,4.18
8.158,-0.81,-4.19,-0.91,4.36
8.168,-0.40,-4.27,-1.65,4.60
8.178,-0.02,-3.93,-2.26,4.53
8.188,0.10,-3.11,-2.74,4.14
8.198,-0.03,-2.16,-3.18,3.84
8.208,-0.27,-1.32,-3.22,3.50
8.218,-0.37,-0.59,-3.04,3.12
8.228,-0.26,-0.03,-2.76,2.77
8.238,0.06,0.45,-2.19,2.23
8.248,0.61,0.95,-1.38,1.79
8.258,1.24,1.68,-0.57,2.16
8.268,1.62,2.79,0.28,3.24
8.278,1.57,4.47,1.15,4.88
8.288,0.99,7.03,1.87,7.34
8.298,0.06,10.22,2.87,10.62
8.308,-0.97,13.35,4.01,13.97
8.319,-0.86,15.54,4.06,16.09
8.329,1.63,13.52,3.28,14.01
8.338,3.72,8.17,1.74,9.15
8.348,3.93,4.41,0.36,5.91
8.358,2.72,2.16,-0.43,3.50
8.368,0.36,1.64,-0.66,1.81
8.378,-2.31,2.10,-0.86,3.24
8.388,-3.80,2.65,-1.18,4.78
8.398,-3.83,2.65,-1.65,4.94
8.407,-2.99,1.70,-1.94,3.95
8.418,-1.99,0.07,-1.85,2.72
8.428,-1.12,-1.53,-1.50,2.42
8.438,-0.28,-2.91,-1.05,3.11
8.448,0.36,-4.00,-0.74,4.08
8.457,0.77,-4.74,-0.62,4.84
8.468,0.90,-5.30,-0.54,5.40
8.478,0.86,-5.91,-0.51,6.00
8.488,0.62,-6.71,-0.65,6.77
8.498,0.07,-7.64,-0.61,7.66
8.507,-0.59,-8.42,-0.27,8.45
8.518,-0.80,-7.97,0.22,8.01
8.527,-0.36,-5.96,0.81,6.03
8.538,0.23,-4.02,1.02,4.15
8.547,0.71,-2.72,0.53,2.86
8.558,1.01,-1.52,0.07,1.82
8.567,1.13,-0.42,-0.19,1.22
8.577,1.09,1.02,-0.46,1.56
8.587,1.12,2.84,-1.00,3.22
8.597,1.48,4.74,-1.47,5.18
8.607,2.09,6.05,-1.56,6.59
8.618,2.58,5.97,-1.21,6.62
8.627,2.46,4.62,-0.20,5.24
8.638,1.55,3.23,1.27,3.80
8.647,0.46,1.94,2.72,3.37
8.657,-0.28,0.82,3.58,3.69
8.667,-0.47,-0.32,3.37,3.42
8.677,-0.42,-1.58,2.19,2.73
8.687,-0.61,-2.85,0.71,3.00
8.697,-1.05,-3.48,-0.45,3.66
8.707,-1.50,-3.25,-1.24,3.79
8.717,-1.67,-2.47,-1.90,3.54
8.727,-1.59,-1.68,-2.01,3.06
8.737,-1.17,-1.44,-1.40,2.33
8.747,-0.60,-1.36,-0.35,1.52
8.757,-0.08,-1.15,0.73,1.36
8.767,0.28,-1.30,1.64,2.11
8.777,0.49,-1.79,2.02,2.74
8.787,0.70,-2.28,1.69,2.92
8.797,0.83,-2.36,0.97,2.69
8.807,0.77,-2.20,0.02,2.33
8.817,0.62,-2.18,-1.07,2.50
8.827,0.34,-2.08,-2.16,3.02
8.837,0.03,-1.96,-3.11,3.68
8.847,-0.13,-1.95,-3.85,4.32
8.857,-0.06,-1.87,-4.35,4.73
8.867,0.36,-1.59,-4.61,4.89
8.877,1.15,-0.90,-4.57,4.80
8.887,2.14,0.39,-3.48,4.10
8.897,3.27,2.47,-0.97,4.21
8.907,4.64,5.23,2.05,7.29
8.917,5.23,8.51,5.03,11.18
8.927,3.95,11.74,4.57,13.20
8.938,0.75,13.06,2.94,13.41
8.948,-1.70,13.92,2.19,14.19
8.957,-4.59,13.24,0.67,14.03
8.967,-6.85,9.71,-0.04,11.89
8.977,-5.58,5.07,0.11,7.55
8.987,-2.05,2.10,0.96,3.09
8.997,0.19,-0.07,0.23,0.31
9.007,1.52,-2.33,-1.25,3.05
9.017,2.25,-4.44,-2.46,5.56
9.027,2.30,-6.50,-2.99,7.51
9.037,1.96,-7.86,-2.02,8.35
9.047,1.34,-8.48,-0.51,8.60
9.057,-0.00,-8.30,0.66,8.33
9.067,-1.66,-7.86,1.21,8.13
9.077,-2.69,-8.04,1.43,8.60
9.087,-3.26,-7.91,1.61,8.71
9.097,-3.66,-7.12,1.66,8.18
9.106,-4.05,-5.52,1.51,7.01
9.117,-4.29,-3.03,1.13,5.37
9.127,-4.37,0.03,0.57,4.40
9.137,-4.32,2.85,-0.35,5.19
9.147,-4.16,4.71,-1.20,6.39
9.156,-3.85,5.00,-0.93,6.38
9.166,-3.12,3.27,0.67,4.57
9.177,-1.82,1.26,2.01,2.99
9.186,-0.38,1.15,1.98,2.32
9.197,0.75,1.51,0.93,1.93
9.206,1.40,1.69,-0.34,2.22
9.217,2.06,1.78,-1.23,2.99
9.226,2.70,1.64,-1.43,3.47
9.237,2.83,0.96,-0.86,3.11
9.246,2.29,-0.32,-0.12,2.32
9.256,1.56,-1.69,0.38,2.33
9.267,1.07,-2.48,0.56,2.76
9.277,0.63,-2.89,0.48,3.00
9.286,0.13,-3.15,0.23,3.16
9.296,-0.40,-3.31,-0.23,3.34
9.306,-0.95,-3.29,-0.74,3.51
9.316,-1.46,-3.14,-1.21,3.67
9.326,-1.89,-2.88,-1.38,3.71
9.336,-2.10,-2.48,-1.21,3.46
9.346,-2.16,-2.18,-0.91,3.20
9.356,-2.06,-2.15,-0.62,3.04
9.366,-1.84,-2.20,-0.46,2.90
9.376,-1.49,-2.29,-0.45,2.77
9.386,-1.01,-2.49,-0.61,2.75
9.396,-0.44,-2.64,-0.91,2.83
9.406,0.18,-2.55,-1.49,2.96
9.416,0.63,-2.05,-2.30,3.14
9.426,0.62,-1.12,-2.97,3.23
9.436,0.32,-0.06,-3.33,3.34
9.446,0.03,1.03,-3.25,3.41
9.456,-0.16,2.01,-2.65,3.33
9.466,-0.24,2.75,-1.47,3.12
9.476,-0.16,3.35,-0.08,3.35
9.486,0.12,4.26,0.94,4.37
9.496,0.34,5.74,1.39,5.92
9.506,0.18,7.79,1.50,7.93
9.516,-0.22,10.08,2.02,10.28
9.526,-0.64,11.90,3.02,12.29
9.537,-0.09,12.17,3.35,12.62
9.546,1.77,9.94,2.72,10.46
9.556,3.06,6.63,1.53,7.46
9.566,2.87,3.68,0.54,4.70
9.576,1.42,1.67,-0.38,2.23
9.586,-0.21,1.18,-1.09,1.62
9.596,-1.57,1.64,-1.37,2.65
9.606,-2.18,2.12,-1.62,3.45
9.616,-1.76,2.20,-1.71,3.29
9.626,-0.99,1.69,-1.68,2.58
9.636,-0.64,0.91,-1.61,1.96
9.646,-0.74,0.19,-1.46,1.64
9.656,-0.83,-0.50,-1.25,1.59
9.666,-0.71,-1.51,-0.75,1.83
9.676,-0.40,-2.69,-0.27,2.73
9.686,-0.08,-3.81,0.13,3.82
9.696,0.08,-4.75,0.38,4.77
9.706,0.03,-5.64,0.46,5.66
9.716,-0.42,-6.56,0.55,6.60
9.726,-1.21,-7.32,0.57,7.44
9.736,-2.06,-7.26,0.66,7.57
9.746,-2.60,-6.57,0.92,7.12
9.756,-2.36,-5.34,1.10,5.94
9.766,-1.52,-4.06,0.59,4.37
9.775,-0.92,-2.37,-0.11,2.54
9.786,-0.65,-0.40,-0.60,0.97
9.796,-0.34,1.04,-1.44,1.81
9.806,0.06,2.62,-1.97,3.28
9.816,0.87,5.13,-2.04,5.59
9.825,1.98,7.62,-1.63,8.04
9.836,2.85,9.19,-0.58,9.63
9.846,3.41,8.44,0.73,9.14
9.856,3.20,5.43,1.88,6.58
9.865,2.50,2.38,3.11,4.65
9.875,2.01,-0.53,3.61,4.16
9.885,2.04,-2.97,3.03,4.71
9.895,2.01,-4.95,2.06,5.73
9.905,1.51,-6.08,1.13,6.37
9.915,0.72,-6.09,0.02,6.13
9.925,-0.22,-5.68,-1.07,5.78
9.935,-1.10,-5.33,-1.88,5.76
9.945,-1.81,-4.96,-2.01,5.65
9.955,-2.20,-4.74,-1.73,5.50
9.965,-2.07,-4.61,-1.22,5.20
9.975,-1.55,-4.43,-0.29,4.71
9.985,-1.17,-4.22,0.71,4.44
9.995,-1.20,-3.84,1.47,4.28
10.005,-1.49,-3.26,1.81,4.01
10.015,-1.56,-2.71,1.46,3.45
10.025,-1.30,-2.40,0.54,2.78
10.035,-0.86,-1.96,-0.59,2.22
10.045,-0.32,-1.21,-1.81,2.19
10.055,0.58,-0.24,-3.12,3.18
10.065,2.12,0.63,-4.15,4.70
10.075,3.84,1.24,-4.73,6.22
10.085,5.39,2.05,-4.71,7.45
10.095,7.02,3.39,-3.73,8.64
10.105,8.88,4.93,-1.65,10.29
10.115,9.87,6.78,2.41,12.21
10.125,8.63,9.16,6.17,14.02
10.135,4.54,10.28,5.26,12.41
10.146,-0.04,9.95,2.13,10.18
10.156,-3.50,10.61,0.39,11.18
10.165,-6.04,10.64,-0.90,12.27
10.175,-6.52,8.16,-1.40,10.54
10.186,-3.74,3.93,-0.66,5.46
10.195,-0.65,0.86,-0.36,1.13
10.205,0.78,-1.71,-0.99,2.12
10.215,1.43,-4.15,-1.96,4.81
10.225,1.47,-6.42,-2.45,7.03
10.235,0.95,-7.91,-1.72,8.15
10.245,0.10,-8.02,-0.51,8.04
10.255,-1.18,-6.85,0.11,6.95
10.265,-2.35,-6.20,0.23,6.63
10.275,-3.14,-6.14,0.31,6.91
10.285,-3.84,-5.49,0.62,6.73
10.295,-4.57,-4.01,0.96,6.16
10.305,-5.22,-1.64,0.66,5.51
10.315,-5.61,1.41,-0.15,5.79
10.325,-5.85,4.39,-0.50,7.33
10.335,-6.06,5.95,0.56,8.51
10.345,-5.64,4.44,2.24,7.52
10.355,-4.24,0.94,3.14,5.36
10.365,-2.67,-1.16,2.85,4.07
10.375,-1.26,-1.90,1.93,2.99
10.385,-0.20,-2.01,0.76,2.16
10.395,0.32,-1.81,-0.30,1.86
10.405,0.40,-1.13,-1.25,1.73
10.415,0.62,-0.07,-1.99,2.08
10.425,1.17,0.66,-2.06,2.46
10.435,1.58,0.77,-1.47,2.28
10.445,1.65,0.29,-0.48,1.74
10.455,1.47,-0.63,0.26,1.62
10.465,1.24,-1.75,0.55,2.22
10.475,0.99,-3.10,0.37,3.27
10.485,0.74,-4.14,0.00,4.20
10.495,0.29,-4.70,-0.19,4.71
10.505,-0.45,-4.73,-0.28,4.76
10.515,-1.27,-4.09,-0.51,4.32
10.525,-1.97,-3.24,-0.70,3.86
10.535,-2.48,-2.41,-0.81,3.56
10.544,-2.80,-1.60,-0.88,3.34
10.554,-3.01,-0.94,-0.84,3.26
10.564,-3.10,-0.51,-0.71,3.22
10.574,-3.04,-0.33,-0.53,3.11
10.584,-2.76,-0.33,-0.44,2.81
10.594,-2.21,-0.43,-0.47,2.30
10.605,-1.30,-0.59,-0.73,1.61
10.614,-0.32,-0.77,-1.01,1.31
10.624,0.40,-0.89,-1.36,1.67
10.634,0.71,-0.77,-1.80,2.08
10.644,0.70,-0.35,-2.23,2.36
10.654,0.68,0.09,-2.60,2.69
10.664,0.81,0.59,-2.81,2.98
10.674,1.02,1.31,-2.80,3.25
10.684,1.22,2.17,-2.66,3.64
10.694,1.32,3.19,-2.25,4.12
10.704,1.12,4.55,-1.20,4.84
10.714,0.52,6.34,0.36,6.37
10.724,-0.02,8.58,2.13,8.84
10.734,-0.29,10.80,3.95,11.50
10.744,0.02,12.14,4.82,13.06
10.754,1.12,10.98,4.41,11.89
10.764,1.62,7.81,3.27,8.62
10.774,0.89,5.27,2.11,5.75
10.784,-0.62,3.89,0.92,4.05
10.794,-2.37,3.54,-0.00,4.26
10.804,-3.82,3.35,-0.81,5.15
10.814,-4.22,2.86,-1.46,5.30
10.824,-3.65,2.00,-1.70,4.49
10.834,-2.64,0.69,-1.54,3.13
10.844,-1.66,-0.73,-1.60,2.42
10.854,-1.02,-1.88,-1.54,2.63
10.864,-0.53,-2.74,-1.29,3.07
10.874,-0.09,-3.54,-1.01,3.69
10.884,0.26,-4.31,-0.83,4.40
10.894,0.55,-4.91,-0.79,5.00
10.904,0.71,-5.45,-0.75,5.54
10.914,0.72,-5.93,-0.58,6.00
10.924,0.63,-6.50,-0.34,6.54
10.934,0.55,-7.27,-0.03,7.29
10.944,0.47,-7.97,0.43,7.99
10.954,0.65,-7.58,1.06,7.68
10.964,1.12,-5.52,1.74,5.89
10.974,1.31,-3.31,1.79,3.99
10.984,1.12,-1.29,1.35,2.18
10.994,0.82,1.03,0.83,1.55
11.004,0.57,3.48,0.05,3.53
11.014,0.65,5.65,-0.91,5.76
11.024,1.56,7.41,-1.62,7.75
11.034,2.68,7.90,-1.38,8.46
11.043,3.26,6.24,-0.30,7.05
11.054,2.82,3.22,0.77,4.35
11.064,1.67,0.84,1.74,2.56
11.074,0.67,-0.67,2.54,2.71
11.084,0.19,-1.97,2.86,3.47
11.094,0.23,-3.29,2.35,4.05
11.104,0.41,-4.52,1.50,4.78
11.114,0.30,-5.20,0.65,5.25
11.124,-0.12,-5.13,-0.59,5.17
11.134,-0.52,-4.30,-1.94,4.74
11.143,-0.72,-3.16,-2.70,4.22
11.154,-0.69,-2.48,-2.46,3.56
11.164,-0.27,-2.14,-1.71,2.75
11.174,0.14,-1.69,-0.72,1.85
11.183,0.29,-1.42,0.32,1.49
11.194,0.28,-1.48,1.44,2.09
11.203,0.28,-1.70,2.17,2.77
11.214,0.30,-1.90,2.09,2.84
11.223,0.33,-1.95,1.07,2.25
11.233,0.37,-2.18,-0.36,2.24
11.244,0.44,-2.50,-1.60,3.00
11.253,0.64,-2.65,-2.73,3.86
11.264,1.05,-2.62,-3.75,4.69
11.273,1.49,-2.53,-4.47,5.34
11.283,1.90,-2.26,-4.88,5.70
11.293,2.39,-1.60,-4.65,5.47
11.303,3.00,-0.33,-3.21,4.41
11.313,4.07,1.72,-1.30,4.60
11.323,5.12,4.08,1.21,6.66
11.333,5.07,7.87,3.99,10.18
11.343,3.37,11.50,4.19,12.70
11.354,0.27,12.22,2.51,12.48
11.363,-2.27,12.86,1.03,13.10
11.374,-5.01,12.61,0.25,13.57
11.384,-5.99,10.20,-0.23,11.83
11.393,-3.06,5.52,0.47,6.33
11.403,0.49,3.11,0.91,3.27
11.413,2.07,1.63,-0.45,2.67
11.423,2.70,-0.15,-2.30,3.54
11.433,3.05,-1.94,-3.62,5.12
11.443,3.21,-3.34,-3.28,5.67
11.453,2.84,-3.94,-1.09,4.98
11.463,1.80,-4.01,0.85,4.48
11.473,0.27,-4.12,1.47,4.38
11.483,-0.94,-4.62,1.31,4.89
11.493,-1.83,-5.02,1.04,5.45
11.503,-2.59,-5.06,0.82,5.74
11.513,-3.40,-4.97,0.65,6.06
11.523,-4.23,-4.72,0.38,6.35
11.533,-5.14,-4.38,0.15,6.76
11.543,-6.02,-3.93,0.11,7.19
11.553,-6.60,-3.39,0.22,7.42
11.563,-6.70,-2.76,0.24,7.25
11.573,-6.19,-2.24,0.10,6.58
11.583,-4.88,-2.29,0.06,5.39
11.593,-3.39,-2.25,0.07,4.07
11.603,-2.09,-1.35,0.08,2.49
11.613,-0.94,0.09,0.00,0.94
11.623,0.02,1.46,-0.39,1.51
11.633,0.90,2.72,-0.82,2.98
11.643,1.74,3.70,-0.92,4.19
11.653,2.48,3.99,-0.21,4.70
11.663,2.86,3.14,0.94,4.35
11.673,2.59,1.56,1.66,3.45
11.683,1.91,-0.11,1.69,2.55
11.693,1.35,-1.52,1.22,2.37
11.703,0.75,-2.55,0.53,2.71
11.713,0.04,-3.27,-0.07,3.27
11.723,-0.74,-3.67,-0.70,3.81
11.733,-1.47,-3.67,-1.32,4.17
11.743,-2.08,-3.41,-1.82,4.39
11.753,-2.64,-3.08,-2.08,4.56
11.763,-3.02,-2.65,-2.04,4.50
11.773,-3.22,-2.38,-1.50,4.28
11.782,-3.18,-2.28,-0.48,3.95
11.792,-2.85,-2.00,0.72,3.55
11.803,-2.37,-1.41,1.53,3.15
11.813,-1.79,-0.84,1.41,2.43
11.823,-1.23,-0.41,0.55,1.41
11.833,-0.74,-0.18,-0.68,1.02
11.842,-0.32,-0.21,-2.06,2.10
11.853,0.11,-0.51,-3.10,3.14
11.863,0.60,-0.81,-3.39,3.53
11.873,0.98,-1.05,-3.03,3.36
11.882,1.11,-1.21,-2.49,2.99
11.892,1.17,-1.17,-2.22,2.77
11.903,1.31,-0.93,-2.18,2.71
11.913,1.40,-0.58,-2.11,2.60
11.922,1.42,-0.09,-1.97,2.43
11.932,1.45,0.78,-1.74,2.39
11.942,1.42,2.08,-1.41,2.89
11.952,1.17,3.73,-1.15,4.08
11.962,0.52,5.79,-0.81,5.87
11.972,-0.58,8.12,0.04,8.14
11.982,-1.51,10.25,1.51,10.47
11.992,-1.22,11.06,2.85,11.49
12.002,-0.12,9.87,2.85,10.28
12.012,1.57,7.35,2.16,7.82
12.022,2.59,5.13,1.42,5.92
12.032,2.23,4.18,0.41,4.76
12.042,0.50,4.33,-0.45,4.38
12.052,-1.91,5.00,-0.92,5.43
12.062,-3.72,5.39,-1.26,6.67
12.072,-4.43,4.91,-1.42,6.76
12.082,-4.17,3.76,-1.32,5.76
12.092,-3.63,2.31,-1.18,4.46
12.102,-2.92,0.82,-0.97,3.18
12.112,-2.07,-0.51,-0.47,2.19
12.122,-1.36,-1.65,-0.15,2.14
12.132,-0.72,-2.64,-0.03,2.74
12.142,-0.22,-3.67,0.15,3.68
12.152,0.12,-4.62,0.28,4.63
12.162,0.37,-5.36,0.34,5.39
12.172,0.56,-5.93,0.37,5.97
12.182,0.65,-6.47,0.51,6.52
12.192,0.64,-7.04,0.72,7.10
12.202,0.67,-7.76,0.87,7.83
12.212,0.77,-8.20,1.08,8.31
12.222,1.02,-7.55,1.22,7.72
12.232,1.65,-5.38,1.11,5.73
12.242,2.08,-3.14,0.78,3.85
12.252,2.25,-1.23,0.40,2.60
12.262,2.34,0.74,0.09,2.45
12.272,2.31,2.67,-0.22,3.54
12.282,2.30,4.39,-0.79,5.01
12.292,2.35,5.91,-1.42,6.52
12.302,2.39,6.87,-1.65,7.45
12.312,1.98,6.18,-1.19,6.59
12.322,1.03,3.63,-0.11,3.78
12.332,-0.00,1.54,1.43,2.11
12.342,-0.88,0.11,2.70,2.84
12.352,-1.30,-0.97,3.20,3.59
12.362,-1.13,-1.89,2.88,3.63
12.372,-0.62,-2.77,2.19,3.59
12.382,-0.26,-3.46,1.61,3.82
12.392,-0.30,-3.78,0.74,3.86
12.402,-0.60,-3.67,-0.41,3.74
12.412,-1.02,-3.00,-1.36,3.45
12.422,-1.39,-1.86,-1.66,2.86
12.432,-1.45,-1.09,-1.32,2.24
12.442,-1.01,-0.97,-0.48,1.48
12.452,-0.58,-0.92,0.50,1.19
12.462,-0.36,-0.82,1.40,1.66
12.472,-0.29,-0.95,1.97,2.21
12.482,-0.25,-1.47,1.99,2.48
12.492,-0.15,-2.09,1.53,2.60
12.502,0.04,-2.60,0.88,2.75
12.512,0.16,-2.80,0.17,2.81
12.522,0.13,-3.10,-0.61,3.17
12.532,0.09,-3.52,-1.41,3.79
12.542,0.07,-3.95,-2.13,4.49
12.551,0.02,-4.26,-2.63,5.01
12.562,-0.12,-4.20,-2.96,5.14
12.571,-0.30,-3.76,-3.17,4.93
12.581,-0.36,-3.03,-3.29,4.49
12.592,-0.22,-2.05,-3.24,3.84
12.602,0.15,-0.66,-2.94,3.02
12.612,0.65,1.08,-2.02,2.38
12.621,1.57,3.29,-0.33,3.66
12.631,3.15,5.50,1.17,6.45
12.642,4.04,7.88,2.98,9.34
12.651,3.56,11.01,2.76,11.90
12.661,1.86,12.81,0.95,12.98
12.672,0.29,12.50,-0.58,12.52
12.681,-0.96,11.40,-1.75,11.58
12.692,-3.03,9.63,-2.17,10.32
12.701,-3.95,7.98,-2.70,9.31
12.711,-2.69,5.26,-1.81,6.18
12.721,0.52,2.32,-0.15,2.38
12.731,2.23,0.78,0.36,2.39
12.741,2.65,-0.11,-0.04,2.65
12.751,2.58,-0.67,-0.91,2.82
12.761,1.78,-1.35,-1.77,2.85
12.771,0.21,-1.97,-1.54,2.51
12.781,-1.04,-2.08,-0.20,2.33
12.791,-1.38,-2.24,1.27,2.92
12.801,-1.26,-2.73,2.11,3.67
12.811,-1.10,-3.21,2.10,3.99
12.821,-1.04,-3.58,1.72,4.10
12.831,-1.20,-4.02,1.49,4.45
12.841,-1.60,-4.62,1.43,5.09
12.851,-2.18,-5.24,1.45,5.85
12.861,-2.89,-5.68,1.48,6.54
12.871,-3.67,-5.82,1.42,7.03
12.881,-4.23,-5.35,1.06,6.90
12.891,-4.33,-4.07,0.19,5.95
12.901,-3.81,-2.12,-0.76,4.43
12.911,-2.93,-0.34,-1.20,3.19
12.921,-2.12,0.80,-0.97,2.47
12.931,-1.63,1.67,-0.49,2.38
12.941,-1.29,2.52,-0.24,2.84
12.951,-0.70,3.15,-0.28,3.24
12.961,0.22,3.29,-0.13,3.30
12.971,0.98,2.48,0.24,2.68
12.981,1.35,1.13,0.70,1.89
12.991,1.51,-0.17,1.08,1.87
13.001,1.55,-1.30,1.15,2.33
13.011,1.49,-2.33,0.70,2.86
13.021,1.25,-3.20,-0.04,3.44
13.031,0.73,-3.91,-0.81,4.06
13.041,0.20,-4.27,-1.49,4.52
13.051,-0.10,-4.31,-1.97,4.74
13.061,-0.24,-4.15,-2.18,4.69
13.071,-0.35,-3.79,-2.06,4.33
13.081,-0.55,-3.29,-1.61,3.70
13.091,-0.80,-2.77,-1.03,3.06
13.101,-1.10,-2.25,-0.44,2.54
13.111,-1.39,-1.57,0.28,2.11
13.121,-1.64,-0.78,0.95,2.05
13.131,-1.84,0.03,1.32,2.27
13.141,-1.96,0.69,1.17,2.39
13.151,-1.97,0.95,0.40,2.23
13.160,-1.77,0.69,-0.62,2.00
13.171,-1.39,0.03,-1.46,2.02
13.181,-0.70,-0.54,-1.96,2.16
13.191,0.13,-0.85,-2.14,2.31
13.200,0.64,-0.96,-2.18,2.47
13.210,0.74,-0.86,-2.16,2.44
13.220,0.70,-0.67,-1.99,2.21
13.231,0.72,-0.59,-1.72,1.95
13.240,0.83,-0.63,-1.46,1.80
13.251,0.91,-0.63,-1.24,1.66
13.260,0.80,-0.35,-0.99,1.32
13.271,0.53,0.40,-0.81,1.05
13.280,0.13,1.67,-0.73,1.83
13.290,-0.29,3.36,-0.66,3.44
13.300,-0.82,5.22,-0.58,5.32
13.310,-1.43,7.07,-0.07,7.22
13.320,-1.66,8.70,0.98,8.91
13.331,-0.47,9.74,1.23,9.82
13.340,2.37,8.83,0.70,9.17
13.350,4.79,5.77,0.42,7.51
13.360,5.24,3.04,0.57,6.08
13.370,4.16,1.40,0.74,4.45
13.380,1.91,1.62,0.24,2.52
13.390,-0.92,3.11,-0.61,3.30
13.400,-2.96,4.74,-1.52,5.79
13.410,-3.89,6.12,-2.36,7.63
13.420,-4.02,6.31,-1.92,7.73
13.430,-3.35,5.55,-1.44,6.64
13.440,-2.63,4.12,-1.00,4.99
13.450,-2.04,2.73,-0.41,3.43
13.460,-1.59,1.60,-0.17,2.27
13.470,-1.38,0.50,-0.07,1.47
13.480,-1.41,-0.63,0.17,1.55
13.490,-1.49,-1.79,0.44,2.37
13.500,-1.40,-2.94,0.71,3.33
13.510,-1.21,-4.00,1.01,4.30
13.520,-1.11,-4.88,1.37,5.19
13.530,-1.15,-5.61,1.68,5.96
13.540,-1.28,-6.30,1.86,6.69
13.550,-1.46,-7.05,1.73,7.41
13.560,-1.47,-7.67,0.92,7.87
13.570,-1.14,-8.10,-0.21,8.18
13.580,-0.75,-8.21,-1.15,8.33
13.590,-0.46,-7.87,-1.85,8.10
13.600,-0.16,-7.08,-2.12,7.39
13.610,0.27,-5.56,-2.16,5.97
13.620,0.88,-3.65,-2.27,4.39
13.630,1.62,-1.59,-2.08,3.07
13.640,2.34,0.85,-1.17,2.75
13.650,2.90,3.20,-0.15,4.32
13.660,3.24,5.92,0.14,6.75
13.670,3.84,9.37,-0.06,10.13
13.680,4.45,10.92,0.77,11.82
13.690,3.63,7.26,2.20,8.41
13.700,2.41,2.93,3.30,5.03
13.710,1.45,0.44,3.56,3.87
13.720,1.04,-0.84,2.77,3.07
13.730,0.81,-1.62,1.65,2.45
13.740,0.59,-2.19,0.64,2.36
13.750,0.32,-2.43,-0.03,2.45
13.760,-0.17,-2.47,-0.56,2.54
13.769,-0.81,-2.33,-1.02,2.67
13.780,-1.33,-2.03,-1.25,2.73
13.789,-1.46,-1.77,-1.19,2.59
13.799,-1.11,-1.66,-0.73,2.13
13.810,-0.58,-1.67,-0.13,1.77
13.820,-0.31,-1.62,0.43,1.71
13.829,-0.27,-1.48,0.92,1.76
13.840,-0.23,-1.27,1.27,1.81
13.849,-0.08,-1.02,1.38,1.72
13.860,0.14,-0.99,1.16,1.53
13.870,0.32,-1.31,0.65,1.50
13.880,0.40,-1.81,0.11,1.85
13.889,0.47,-2.42,-0.38,2.50
13.900,0.45,-3.09,-0.77,3.22
13.909,0.37,-3.59,-1.13,3.78
13.919,0.33,-3.86,-1.50,4.15
13.929,0.31,-3.92,-1.80,4.33
13.939,0.26,-3.73,-2.06,4.28
13.949,0.19,-3.37,-2.28,4.08
13.959,0.22,-2.92,-2.42,3.80
13.969,0.44,-2.31,-2.46,3.40
13.979,0.81,-1.45,-2.35,2.88
13.989,1.31,-0.34,-2.07,2.48
13.999,1.98,1.18,-1.03,2.52
14.009,2.98,3.21,0.49,4.41
14.019,4.17,5.07,1.77,6.80
14.029,4.19,7.75,3.06,9.32
14.039,2.73,10.49,1.77,10.98
14.049,0.10,11.56,-0.12,11.56
14.060,-1.81,11.81,-0.67,11.96
14.070,-3.51,11.10,-0.50,11.65
14.079,-4.90,8.49,-0.74,9.83
14.089,-4.21,4.35,-1.38,6.21
14.099,-1.34,1.48,-0.39,2.03
14.109,1.06,0.61,0.51,1.32
14.119,2.05,0.10,0.38,2.09
14.129,2.41,-0.17,-0.54,2.47
14.139,2.34,-0.71,-1.85,3.07
14.149,1.64,-1.55,-2.45,3.33
14.159,0.43,-2.03,-1.65,2.65
14.169,-0.29,-1.52,0.06,1.55
14.179,-0.41,-1.37,1.50,2.07
14.189,-0.35,-1.60,2.18,2.73
14.199,-0.45,-1.72,1.86,2.58
14.209,-0.87,-1.87,1.30,2.43
14.219,-1.48,-2.18,1.05,2.84
14.229,-2.29,-2.69,1.01,3.67
14.239,-3.18,-3.31,1.06,4.71
14.249,-4.06,-3.82,1.19,5.70
14.259,-4.90,-4.06,1.20,6.47
14.269,-5.40,-3.97,0.88,6.76
14.279,-5.36,-3.66,0.13,6.50
14.289,-4.58,-3.28,-0.55,5.66
14.299,-3.35,-2.79,-0.85,4.44
14.309,-2.18,-2.09,-0.80,3.12
14.319,-1.30,-1.37,-0.61,1.98
14.329,-0.65,-0.54,-0.50,0.99
14.339,-0.08,0.34,-0.47,0.58
14.349,0.50,1.10,-0.45,1.30
14.359,1.03,1.60,-0.36,1.93
14.369,1.50,1.60,-0.11,2.19
14.379,1.89,1.18,0.31,2.24
14.389,2.05,0.41,0.59,2.17
14.399,1.95,-0.52,0.42,2.06
14.409,1.67,-1.24,-0.11,2.09
14.419,1.27,-1.52,-0.62,2.07
14.429,0.72,-1.54,-0.99,1.97
14.439,0.22,-1.55,-1.19,1.97
14.449,-0.12,-1.52,-1.20,1.94
14.459,-0.35,-1.39,-1.02,1.76
14.468,-0.53,-1.17,-0.70,1.46
14.479,-0.68,-0.89,-0.21,1.14
14.489,-0.82,-0.62,0.42,1.10
14.499,-0.94,-0.44,0.97,1.42
14.509,-1.02,-0.40,1.29,1.70
14.518,-1.07,-0.44,1.35,1.78
14.528,-1.09,-0.51,1.13,1.64
14.538,-1.08,-0.54,0.65,1.37
14.548,-1.02,-0.59,-0.02,1.17
14.558,-0.93,-0.61,-0.81,1.38
14.569,-0.78,-0.71,-1.56,1.88
14.579,-0.51,-0.95,-2.05,2.32
14.588,-0.20,-1.35,-2.23,2.61
14.598,0.09,-1.75,-2.22,2.83
14.608,0.39,-1.95,-2.08,2.87
14.618,0.62,-1.87,-1.87,2.71
14.629,0.54,-1.59,-1.64,2.34
14.638,0.26,-1.28,-1.40,1.92
14.648,0.04,-1.01,-1.22,1.59
14.658,-0.03,-0.88,-1.16,1.46
14.668,-0.03,-0.84,-1.07,1.36
14.678,-0.00,-0.72,-0.92,1.16
14.688,-0.01,-0.51,-0.89,1.02
14.698,-0.09,-0.17,-1.01,1.02
14.708,-0.18,0.32,-1.24,1.30
14.718,-0.31,0.94,-1.41,1.72
14.728,-0.59,1.92,-1.48,2.50
14.738,-1.12,3.46,-1.18,3.83
14.748,-1.70,5.39,-0.47,5.67
14.758,-1.82,7.66,0.21,7.87
14.768,-0.41,9.67,0.54,9.69
14.778,2.23,9.01,0.76,9.31
14.788,3.69,6.05,1.15,7.18
14.798,3.04,3.99,1.96,5.39
14.808,0.80,3.79,2.21,4.46
14.818,-2.15,4.73,1.47,5.40
14.828,-4.58,6.20,0.58,7.73
14.838,-5.54,7.90,-0.07,9.65
14.848,-5.04,9.00,-0.61,10.34
14.858,-3.89,7.83,-1.10,8.81
14.868,-2.62,5.29,-1.38,6.06
14.878,-1.55,2.87,-1.49,3.59
14.888,-0.75,1.04,-1.36,1.87
14.898,-0.04,-0.20,-1.24,1.25
14.908,0.47,-1.42,-1.08,1.84
14.918,0.77,-2.64,-0.89,2.89
14.928,1.11,-3.79,-0.74,4.01
14.938,1.59,-4.81,-0.57,5.10
14.948,2.02,-5.57,-0.39,5.94
14.958,2.34,-6.05,-0.09,6.49
14.968,2.48,-6.41,0.28,6.88
14.978,2.45,-6.67,0.65,7.13
14.988,2.31,-6.76,0.71,7.18
14.998,2.16,-6.62,0.25,6.97
15.008,2.03,-6.05,-0.53,6.41
15.018,1.91,-5.31,-1.12,5.75
15.028,1.61,-4.36,-1.10,4.78
15.038,1.38,-3.09,-1.24,3.60
15.048,1.22,-1.63,-1.55,2.57
15.058,1.10,-0.02,-1.75,2.06
15.068,1.09,1.86,-1.77,2.79
15.078,0.92,3.97,-1.02,4.20
15.088,0.73,5.97,-0.42,6.03
15.098,0.57,6.92,-0.15,6.95
15.108,0.25,5.51,0.62,5.55
15.118,-0.10,2.91,2.16,3.63
15.128,-0.63,1.17,3.73,3.96
15.138,-1.21,-0.21,4.14,4.32
15.148,-1.44,-1.26,3.42,3.92
15.157,-1.30,-2.12,2.20,3.32
15.168,-1.10,-2.59,1.11,3.03
15.178,-0.94,-2.63,0.21,2.80
15.188,-0.93,-2.54,-0.51,2.75
15.197,-1.03,-2.42,-0.77,2.74
15.208,-1.08,-2.19,-0.88,2.60
15.218,-0.98,-1.97,-1.03,2.43
15.227,-0.74,-1.93,-0.97,2.28
15.237,-0.46,-1.99,-0.63,2.14
15.247,-0.10,-2.04,-0.18,2.05
15.257,0.35,-1.98,0.22,2.02
15.267,0.74,-1.89,0.49,2.09
15.277,1.04,-1.72,0.62,2.10
15.287,1.22,-1.47,0.69,2.03
15.297,1.26,-1.24,0.72,1.91
15.307,1.05,-1.18,0.70,1.73
15.317,0.72,-1.35,0.49,1.61
15.327,0.49,-1.49,0.23,1.58
15.337,0.41,-1.52,-0.11,1.57
15.347,0.30,-1.60,-0.61,1.74
15.357,0.10,-1.65,-1.17,2.03
15.367,-0.17,-1.68,-1.80,2.47
15.377,-0.44,-1.70,-2.40,2.98
15.387,-0.67,-1.66,-2.86,3.37
15.397,-0.83,-1.50,-3.18,3.61
15.407,-0.96,-1.11,-3.31,3.62
15.417,-0.96,-0.52,-3.42,3.59
15.427,-0.67,0.19,-3.40,3.47
15.437,-0.00,1.11,-2.67,2.89
15.447,1.08,2.54,-0.77,2.86
15.457,2.61,4.85,1.65,5.75
15.467,3.83,7.52,3.19,9.02
15.477,3.23,9.58,3.32,10.65
15.487,-0.04,11.09,2.70,11.42
15.498,-3.68,13.44,1.73,14.04
15.508,-7.09,14.26,0.12,15.92
15.518,-9.33,11.09,-0.22,14.49
15.527,-7.43,5.07,0.33,9.00
15.537,-2.18,1.78,0.92,2.96
15.547,0.78,0.44,0.59,1.07
15.557,2.24,-1.23,-0.51,2.60
15.567,3.16,-2.49,-1.80,4.40
15.577,3.05,-3.80,-2.31,5.39
15.587,1.72,-4.76,-1.29,5.22
15.597,-0.47,-4.28,0.03,4.30
15.607,-2.23,-3.48,0.81,4.21
15.617,-3.44,-3.91,1.55,5.43
15.627,-4.26,-4.51,2.03,6.52
15.637,-4.58,-4.34,2.14,6.66
15.647,-4.65,-3.65,1.90,6.21
15.657,-4.81,-2.88,1.48,5.80
15.667,-5.15,-2.25,1.20,5.75
15.677,-5.42,-1.90,1.32,5.89
15.687,-5.08,-2.05,1.42,5.66
15.697,-4.04,-2.52,1.32,4.94
15.707,-2.75,-2.75,0.92,3.99
15.717,-1.56,-2.76,0.17,3.17
15.726,-0.78,-2.54,-0.66,2.74
15.737,-0.63,-2.23,-1.33,2.67
15.747,-0.68,-1.76,-2.03,2.77
15.757,-0.51,-1.20,-2.64,2.95
15.767,-0.07,-0.74,-2.72,2.83
15.777,0.61,-0.55,-2.23,2.38
15.787,1.30,-0.63,-1.43,2.03
15.797,1.70,-0.93,-0.66,2.04
15.807,1.74,-1.23,-0.04,2.13
15.817,1.50,-1.31,0.29,2.01
15.827,1.20,-1.09,0.31,1.65
15.837,0.99,-0.53,0.16,1.14
15.847,0.77,0.12,-0.13,0.79
15.857,0.54,0.71,-0.44,1.00
15.867,0.31,1.17,-0.67,1.38
15.877,0.08,1.35,-0.80,1.57
15.887,-0.10,1.23,-0.92,1.54
15.896,-0.04,0.89,-1.09,1.40
15.906,0.18,0.61,-1.20,1.35
15.916,0.37,0.47,-1.30,1.43
15.926,0.56,0.37,-1.31,1.47
15.936,0.82,0.23,-1.20,1.47
15.946,1.11,-0.03,-0.96,1.47
15.956,1.37,-0.37,-0.82,1.64
15.966,1.56,-0.70,-0.73,1.86
15.976,1.62,-1.01,-0.63,2.01
15.986,1.58,-1.25,-0.60,2.11
15.996,1.44,-1.29,-0.66,2.04
16.006,1.24,-1.13,-0.74,1.83
16.016,1.08,-0.90,-0.83,1.63
16.026,0.99,-0.62,-0.90,1.47
16.036,0.88,-0.24,-0.96,1.32
16.046,0.75,0.15,-1.01,1.27
16.056,0.62,0.49,-1.04,1.31
16.066,0.50,0.74,-1.08,1.41
16.076,0.46,0.84,-1.17,1.51
16.086,0.46,0.67,-1.33,1.55
16.096,0.52,0.37,-1.42,1.55
16.106,0.66,0.00,-1.50,1.64
16.116,0.79,-0.36,-1.59,1.81
16.126,0.82,-0.70,-1.68,2.00
16.136,0.64,-1.00,-1.77,2.13
16.146,0.27,-1.28,-1.94,2.34
16.156,-0.15,-1.41,-2.14,2.57
16.166,-0.57,-1.35,-2.31,2.74
16.176,-0.91,-1.07,-2.42,2.80
16.186,-1.12,-0.62,-2.48,2.79
16.196,-1.15,-0.28,-2.46,2.73
16.206,-0.86,-0.11,-2.45,2.60
16.216,-0.36,-0.13,-2.32,2.35
16.226,0.15,-0.31,-2.11,2.14
16.236,0.46,-0.57,-1.91,2.04
16.246,0.47,-0.79,-1.64,1.88
16.256,0.29,-0.94,-1.43,1.73
16.266,0.03,-0.98,-1.30,1.63
16.276,-0.21,-0.86,-1.29,1.57
16.286,-0.23,-0.83,-1.28,1.54
16.296,0.03,-1.07,-1.11,1.55
16.306,0.41,-1.47,-0.77,1.71
16.316,0.78,-1.83,-0.05,1.99
16.326,1.01,-1.97,1.22,2.52
16.336,1.04,-1.80,1.85,2.79
16.347,1.07,-1.29,1.57,2.30
16.356,1.06,-0.33,1.14,1.60
16.366,0.94,0.77,0.70,1.41
16.376,0.74,1.86,0.23,2.01
16.386,0.45,2.66,-0.20,2.70
16.396,-0.01,3.20,-0.61,3.26
16.406,-0.58,3.61,-0.82,3.75
16.416,-0.88,3.78,-0.69,3.95
16.426,-0.76,3.44,-0.05,3.52
16.435,-0.30,2.50,0.68,2.61
16.446,0.26,1.54,1.12,1.92
16.456,0.69,0.76,1.44,1.77
16.466,1.01,0.10,1.64,1.93
16.475,1.27,-0.45,1.81,2.26
16.486,1.54,-0.82,1.93,2.60
16.496,1.86,-1.07,2.00,2.94
16.506,2.29,-1.18,2.12,3.33
16.516,2.82,-1.12,2.24,3.77
16.526,3.34,-1.00,2.41,4.23
16.536,3.76,-0.65,2.11,4.36
16.546,4.09,-0.33,1.60,4.40
16.556,4.29,0.18,0.90,4.39
16.566,4.39,0.99,0.05,4.50
16.575,4.26,1.96,-0.53,4.72
16.585,3.97,2.84,-0.79,4.95
16.595,3.54,3.36,-0.55,4.91
16.605,2.93,3.48,-0.07,4.55
16.615,2.19,3.25,0.31,3.93
16.625,1.37,2.79,0.63,3.17
16.635,0.60,2.13,1.08,2.46
16.645,0.02,1.32,1.53,2.02
16.655,-0.41,0.45,1.94,2.03
16.665,-0.71,-0.31,2.19,2.32
16.675,-0.91,-0.84,2.15,2.48
16.685,-0.97,-1.20,1.76,2.34
16.695,-0.84,-1.46,1.16,2.05
16.705,-0.58,-1.69,0.58,1.88
16.715,-0.27,-1.87,0.03,1.89
16.725,0.08,-1.95,-0.50,2.01
16.735,0.49,-1.96,-0.97,2.24
16.745,0.88,-1.88,-1.21,2.40
16.755,1.20,-1.74,-1.18,2.42
16.765,1.40,-1.55,-0.96,2.30
16.775,1.53,-1.35,-0.78,2.18
16.785,1.52,-1.10,-0.58,1.96
16.795,1.42,-0.78,-0.23,1.64
16.805,1.37,-0.44,0.07,1.44
16.815,1.39,-0.17,0.21,1.42
16.825,1.45,0.05,0.23,1.46
16.835,1.48,0.23,0.22,1.51
16.845,1.44,0.35,0.20,1.50
16.855,1.41,0.49,0.13,1.49
16.865,1.43,0.55,-0.02,1.54
16.875,1.52,0.52,-0.23,1.62
16.885,1.61,0.37,-0.55,1.74
16.895,1.70,0.11,-1.03,1.99
16.905,1.78,-0.24,-1.68,2.46
16.915,1.90,-0.56,-2.38,3.10
16.925,2.10,-0.82,-3.02,3.77
16.935,2.43,-1.01,-3.44,4.33
16.945,2.89,-1.00,-3.57,4.70
16.955,3.24,-0.83,-3.51,4.85
16.965,3.33,-0.50,-3.28,4.70
16.975,3.11,0.35,-2.66,4.10
16.985,2.24,2.28,-1.62,3.58
16.995,0.36,4.89,-0.42,4.92
17.005,-1.92,7.15,0.75,7.44
17.015,-3.38,7.97,2.53,9.02
17.025,-2.93,5.98,4.48,8.02
17.035,-1.27,3.29,5.62,6.63
17.045,0.04,1.58,5.52,5.74
17.055,0.75,0.29,4.62,4.69
17.065,1.07,-0.36,3.74,3.91
17.075,1.04,-0.76,3.03,3.29
17.085,0.78,-1.23,2.34,2.75
17.095,0.35,-1.75,1.76,2.51
17.105,-0.30,-2.41,1.44,2.83
17.114,-1.13,-3.31,1.29,3.73
17.125,-2.19,-3.84,1.01,4.53
17.134,-3.41,-4.04,1.05,5.39
17.145,-4.67,-3.72,1.27,6.10
17.155,-5.99,-3.49,0.76,6.98
17.165,-7.54,-3.14,0.55,8.19
17.174,-8.64,-1.76,0.78,8.85
17.185,-8.65,0.75,1.76,8.86
17.195,-7.74,2.69,2.89,8.69
17.204,-5.84,2.94,2.64,7.05
17.214,-3.43,1.74,0.94,3.96
17.225,-1.30,0.31,-1.16,1.77
17.235,0.45,-0.64,-2.73,2.84
17.245,1.64,-1.35,-3.60,4.18
17.254,2.28,-1.87,-3.70,4.73
17.264,2.64,-1.87,-3.12,4.49
17.274,2.97,-1.25,-2.47,4.06
17.284,3.40,-0.08,-1.88,3.89
17.294,3.81,0.90,-1.18,4.09
17.304,4.03,1.20,-0.37,4.22
17.314,3.86,0.99,0.45,4.01
17.324,2.90,0.61,0.94,3.11
17.334,1.33,0.64,1.01,1.79
17.344,-0.30,1.14,1.07,1.60
17.354,-1.68,1.77,1.05,2.65
17.364,-2.51,2.12,0.74,3.36
17.374,-2.74,1.80,0.31,3.30
17.384,-2.37,1.01,-0.01,2.58
17.394,-1.67,0.36,-0.55,1.79
17.404,-0.89,-0.07,-1.32,1.59
17.414,-0.15,-0.39,-2.03,2.07
17.424,0.49,-0.75,-2.55,2.70
17.434,1.03,-1.05,-2.86,3.21
17.444,1.40,-1.17,-2.94,3.45
17.454,1.63,-1.16,-2.80,3.44
17.464,1.80,-1.14,-2.67,3.42
17.474,1.83,-1.14,-2.57,3.35
17.484,1.65,-1.09,-2.50,3.19
17.494,1.31,-0.96,-2.28,2.80
17.504,0.96,-0.69,-1.97,2.30
17.514,0.79,-0.26,-1.68,1.87
17.524,0.78,0.22,-1.41,1.62
17.534,0.84,0.52,-1.25,1.59
17.544,0.90,0.61,-1.31,1.70
17.554,0.88,0.44,-1.54,1.82
17.564,0.88,0.10,-1.95,2.14
17.574,0.88,-0.45,-2.47,2.66
17.584,0.83,-0.99,-3.02,3.28
17.594,0.81,-1.42,-3.51,3.87
17.604,0.84,-1.77,-3.67,4.16
17.614,1.00,-2.07,-3.44,4.14
17.624,1.17,-2.25,-2.71,3.72
17.634,1.24,-2.33,-1.58,3.07
17.644,1.13,-2.15,-0.14,2.43
17.654,1.01,-1.49,0.94,2.03
17.664,1.01,-0.45,1.29,1.70
17.674,1.17,0.84,1.01,1.76
17.684,1.63,2.36,0.47,2.90
17.694,2.11,3.83,0.13,4.38
17.704,2.29,5.05,-0.14,5.54
17.714,2.09,5.85,0.07,6.21
17.724,1.21,6.10,0.88,6.28
17.734,-0.08,5.33,2.13,5.74
17.744,-1.03,3.85,2.96,4.97
17.754,-1.55,2.52,2.87,4.12
17.764,-1.94,1.57,2.43,3.48
17.774,-2.31,0.49,1.98,3.08
17.784,-2.37,-0.76,1.80,3.07
17.793,-1.93,-1.86,2.05,3.38
17.804,-1.24,-2.68,2.52,3.88
17.813,-0.40,-2.78,2.87,4.02
17.823,0.56,-3.11,3.68,4.85
17.833,1.64,-3.04,5.00,6.08
17.844,2.73,-1.06,5.24,6.01
17.854,3.62,1.97,4.46,6.07
17.863,4.33,4.66,2.88,6.98
17.874,5.38,6.05,1.32,8.20
17.883,6.03,6.14,1.04,8.67
17.893,5.27,5.09,1.24,7.43
17.903,3.51,3.35,1.05,4.96
17.913,2.22,1.43,0.77,2.75
17.923,1.55,-0.32,0.56,1.67
17.933,1.43,-1.56,0.12,2.12
17.943,1.57,-2.09,0.21,2.62
17.953,1.68,-2.05,0.34,2.67
17.964,1.51,-1.83,0.11,2.38
17.973,1.16,-1.46,-0.27,1.88
17.983,0.78,-1.01,-0.38,1.33
17.993,0.65,-0.74,-0.27,1.02
18.004,0.80,-1.02,-0.18,1.31
18.013,0.94,-1.49,-0.10,1.77
18.024,1.04,-1.77,-0.19,2.06
18.033,0.90,-1.64,-0.21,1.88
18.043,0.60,-1.36,-0.04,1.49
18.053,0.35,-1.15,0.27,1.23
18.063,0.35,-1.08,0.46,1.23
18.073,0.50,-1.17,0.62,1.42
18.083,0.76,-1.17,0.80,1.61
18.093,1.12,-1.16,0.86,1.82
18.103,1.47,-1.22,0.72,2.04
18.113,1.66,-1.27,0.48,2.15
18.123,1.65,-1.30,0.17,2.11
18.133,1.49,-1.47,-0.21,2.11
18.143,1.21,-1.78,-0.58,2.23
18.153,0.85,-2.09,-0.80,2.40
18.163,0.51,-2.40,-0.85,2.60
18.173,0.30,-2.59,-0.78,2.72
18.183,0.25,-2.70,-0.63,2.78
18.193,0.32,-2.70,-0.44,2.75
18.203,0.43,-2.60,-0.21,2.64
18.213,0.58,-2.38,-0.03,2.45
18.223,0.80,-2.04,0.10,2.20
18.233,1.11,-1.65,0.14,2.00
18.243,1.40,-1.33,0.13,1.93
18.253,1.67,-0.55,0.33,1.79
18.263,1.82,0.75,0.43,2.02
18.273,1.81,2.13,0.22,2.80
18.283,1.50,3.32,-0.11,3.64
18.293,1.11,4.35,-0.39,4.51
18.303,1.00,5.21,-0.44,5.32
18.313,1.24,5.79,-0.02,5.92
18.323,1.72,6.09,0.40,6.34
18.333,2.06,6.02,0.41,6.38
18.343,1.93,5.87,0.01,6.18
18.353,1.79,5.88,-0.59,6.18
18.363,2.13,5.70,-0.94,6.16
18.373,2.63,5.30,-0.94,5.99
18.383,2.68,5.14,-1.09,5.90
18.393,2.06,5.32,-1.08,5.81
18.403,1.24,5.16,-1.05,5.41
18.413,0.55,4.31,-0.73,4.41
18.423,-0.10,3.59,0.16,3.59
18.433,-0.71,3.22,0.84,3.40
18.443,-1.06,3.00,1.02,3.34
18.453,-1.06,2.71,0.69,2.99
18.463,-0.89,1.95,0.33,2.17
18.473,-0.65,0.76,0.21,1.02
18.483,-0.42,-0.67,0.18,0.82
18.493,-0.28,-2.09,0.30,2.14
18.503,-0.22,-3.29,0.52,3.34
18.513,-0.26,-4.21,0.83,4.30
18.523,-0.39,-4.82,1.14,4.97
18.532,-0.58,-5.18,1.36,5.39
18.543,-0.80,-5.35,1.52,5.62
18.553,-1.05,-5.33,1.60,5.66
18.563,-1.31,-5.00,1.59,5.41
18.573,-1.60,-4.39,1.42,4.88
18.583,-1.88,-3.46,1.22,4.12
18.592,-2.06,-2.32,0.99,3.26
18.602,-2.15,-1.21,0.81,2.60
18.613,-2.16,-0.30,0.72,2.30
18.623,-2.11,0.33,0.67,2.24
18.632,-1.94,0.65,0.76,2.18
18.642,-1.57,0.50,0.99,1.92
18.652,-0.95,-0.04,1.16,1.50
18.662,-0.27,-0.61,1.16,1.34
18.672,0.21,-1.09,1.05,1.53
18.682,0.39,-1.38,0.85,1.67
18.692,0.31,-1.43,0.49,1.55
18.702,0.12,-1.42,0.12,1.43
18.712,-0.08,-1.37,-0.08,1.37
18.722,-0.25,-1.26,-0.18,1.29
18.732,-0.40,-1.11,-0.24,1.20
18.742,-0.52,-0.93,-0.28,1.11
18.752,-0.65,-0.73,-0.21,0.99
18.762,-0.84,-0.51,-0.02,0.98
18.772,-1.05,-0.32,0.23,1.13
18.782,-1.28,-0.14,0.49,1.38
18.792,-1.45,0.05,0.67,1.60
18.802,-1.51,0.26,0.73,1.70
18.812,-1.43,0.38,0.73,1.65
18.822,-1.05,0.32,0.61,1.26
18.832,-0.55,0.12,0.39,0.69
18.842,-0.11,-0.13,0.12,0.20
18.852,0.16,-0.39,-0.15,0.45
18.862,0.30,-0.77,-0.43,0.93
18.872,0.38,-1.14,-0.60,1.34
18.882,0.45,-1.42,-0.75,1.67
18.892,0.55,-1.67,-0.92,1.98
18.902,0.70,-1.95,-1.09,2.34
18.912,0.93,-2.17,-1.24,2.67
18.922,1.15,-2.32,-1.35,2.92
18.932,1.25,-2.33,-1.34,2.96
18.942,1.22,-2.14,-1.17,2.73
18.952,1.13,-1.95,-1.00,2.47
18.962,1.10,-1.79,-0.89,2.28
18.972,1.07,-1.61,-0.81,2.10
18.982,1.03,-1.45,-0.70,1.91
18.992,1.00,-1.28,-0.52,1.71
19.002,0.94,-1.12,-0.36,1.51
19.012,0.89,-0.99,-0.27,1.36
19.022,0.85,-0.86,-0.25,1.24
19.032,0.81,-0.68,-0.37,1.12
19.042,0.74,-0.34,-0.60,1.01
19.052,0.52,0.16,-0.88,1.04
19.062,0.07,0.88,-1.26,1.54
19.072,-0.62,1.91,-1.70,2.63
19.082,-1.20,3.50,-1.70,4.07
19.092,-1.00,5.90,-1.41,6.15
19.102,0.59,8.62,-1.31,8.74
19.112,3.48,9.87,-1.04,10.52
19.122,5.95,8.69,0.09,10.53
19.132,6.36,6.51,1.86,9.29
19.142,4.42,5.48,2.25,7.39
19.152,1.42,6.59,0.77,6.78
19.162,-0.32,7.78,-0.49,7.80
19.172,-0.61,8.40,-0.78,8.46
19.182,-0.12,8.13,-0.70,8.16
19.191,0.26,6.73,-0.69,6.77
19.202,0.34,4.95,-0.96,5.06
19.211,0.23,3.95,-1.34,4.17
19.222,-0.18,3.82,-0.96,3.95
19.231,-0.84,3.83,-0.12,3.92
19.242,-1.27,3.56,0.56,3.82
19.251,-1.24,2.75,1.01,3.19
19.262,-1.04,1.26,1.17,2.01
19.271,-0.82,-0.41,0.90,1.28
19.282,-0.54,-1.82,0.42,1.95
19.292,-0.22,-3.31,0.17,3.32
19.302,0.22,-4.81,0.06,4.81
19.311,0.78,-6.18,-0.10,6.23
19.322,1.27,-7.52,-0.30,7.63
19.331,1.54,-8.68,-0.45,8.83
19.341,1.56,-9.68,-0.75,9.83
19.351,1.39,-10.44,-1.29,10.61
19.361,1.06,-11.06,-1.75,11.25
19.371,0.75,-11.02,-2.13,11.25
19.382,0.77,-9.53,-2.66,9.92
19.391,0.86,-6.79,-2.62,7.33
19.401,1.02,-3.98,-2.53,4.82
19.411,1.45,-1.36,-2.43,3.15
19.421,1.83,1.22,-1.91,2.91
19.431,2.11,3.73,-1.04,4.41
19.441,2.24,6.36,0.07,6.74
19.451,1.93,9.67,0.70,9.88
19.461,0.76,12.01,2.15,12.22
19.471,-0.88,9.17,4.26,10.15
19.481,-1.28,3.58,5.72,6.86
19.491,-0.95,0.56,5.75,5.86
19.501,-0.46,-0.83,4.90,4.99
19.511,-0.16,-1.46,3.51,3.80
19.521,0.00,-1.76,1.77,2.49
19.531,0.16,-1.90,0.55,1.98
19.541,0.26,-1.93,-0.08,1.95
19.551,0.20,-1.83,-0.78,2.00
19.561,-0.06,-2.05,-1.60,2.60
19.571,-0.22,-2.67,-1.99,3.33
19.581,-0.04,-3.02,-1.64,3.44
19.591,0.36,-2.93,-0.98,3.11
19.601,0.77,-2.78,-0.41,2.92
19.611,1.10,-2.69,0.24,2.92
19.621,1.41,-2.72,0.98,3.22
19.631,1.67,-2.86,1.57,3.66
19.641,1.88,-2.82,1.92,3.89
19.651,1.92,-2.50,1.82,3.64
19.661,1.68,-2.16,1.17,2.98
19.671,1.36,-2.14,0.25,2.55
19.681,1.16,-2.43,-0.62,2.77
19.691,1.08,-2.96,-1.31,3.41
19.701,0.99,-3.42,-1.83,4.00
19.711,0.98,-3.56,-2.33,4.36
19.721,1.08,-3.20,-2.82,4.40
19.731,1.18,-2.32,-3.12,4.07
19.741,1.30,-1.31,-3.14,3.64
19.751,1.77,-0.29,-2.83,3.35
19.761,2.56,2.13,-1.82,3.80
19.771,2.69,6.80,-0.62,7.34
19.781,1.13,11.71,-1.22,11.83
19.791,-0.47,13.44,-1.06,13.49
19.801,-1.52,13.77,1.01,13.89
19.812,-2.47,13.91,2.80,14.40
19.822,-3.66,12.12,3.16,13.05
19.831,-3.22,7.78,2.06,8.67
19.841,-0.49,4.65,1.94,5.06
19.851,1.57,3.82,1.72,4.48
19.861,2.46,2.75,0.61,3.74
19.871,2.73,1.28,-1.10,3.21
19.881,2.56,-0.53,-2.48,3.61
19.890,1.95,-2.47,-2.87,4.26
19.900,1.09,-3.72,-1.59,4.19
19.910,0.40,-4.01,0.18,4.03
19.920,-0.43,-3.94,1.53,4.25
19.931,-1.17,-4.16,1.95,4.74
19.940,-1.50,-4.43,1.57,4.94
19.950,-1.64,-4.57,1.04,4.97
19.961,-1.89,-4.63,0.80,5.07
19.970,-2.36,-4.68,0.82,5.31
19.980,-3.02,-4.64,1.08,5.64
19.990,-3.79,-4.40,1.47,5.99
20.000,-4.47,-3.88,1.70,6.16
20.010,-4.78,-3.23,1.69,6.01
20.020,-4.48,-2.82,1.46,5.49
20.030,-3.69,-2.89,1.28,4.86
20.040,-2.94,-2.82,1.16,4.24
20.050,-2.50,-2.07,0.89,3.37
20.060,-2.30,-0.70,0.38,2.44
20.070,-1.92,0.96,-0.34,2.18
20.080,-0.78,2.70,-1.19,3.05
20.090,1.04,4.16,-1.67,4.60
20.100,2.87,4.74,-1.22,5.67
20.110,4.16,4.27,-0.03,5.96
20.120,4.61,2.85,1.38,5.59
20.130,4.00,0.78,2.16,4.61
20.140,2.74,-0.98,1.79,3.41
20.150,1.77,-2.13,0.67,2.85
20.160,1.01,-2.77,-0.29,2.97
20.170,0.34,-3.02,-0.70,3.12
20.180,-0.16,-3.11,-0.92,3.25
20.190,-0.61,-3.09,-1.11,3.34
20.200,-1.12,-2.93,-1.16,3.35
20.210,-1.63,-2.75,-1.13,3.39
20.220,-2.15,-2.48,-0.83,3.38
20.230,-2.56,-2.11,-0.23,3.32
20.240,-2.85,-1.80,0.54,3.41
20.250,-2.83,-1.59,1.12,3.44
20.260,-2.43,-1.64,1.20,3.17
20.270,-1.65,-1.99,0.68,2.67
20.280,-0.60,-2.43,-0.16,2.50
20.290,0.42,-2.76,-1.09,2.99
20.300,1.17,-2.89,-2.09,3.75
20.310,1.63,-2.91,-2.76,4.33
20.320,1.84,-2.90,-3.02,4.57
20.330,1.82,-2.91,-3.19,4.69
20.340,1.70,-2.81,-3.37,4.70
20.350,1.57,-2.53,-3.34,4.48
20.360,1.50,-2.13,-3.06,4.02
20.370,1.46,-1.46,-2.59,3.31
20.380,1.52,-0.39,-2.06,2.60
20.390,1.72,1.34,-1.56,2.68
20.400,1.81,4.02,-1.10,4.54
20.410,1.37,7.60,-0.24,7.73
20.420,0.45,11.95,1.79,12.09
20.430,-0.34,16.52,4.10,17.03
20.441,0.38,17.72,5.18,18.46
20.450,2.06,11.83,5.39,13.17
20.460,2.32,6.16,4.99,8.26
20.470,1.18,3.80,3.27,5.15
20.480,-1.34,4.49,0.76,4.74
20.490,-3.80,6.15,-1.11,7.31
20.500,-4.99,7.43,-2.99,9.44
20.510,-4.87,7.86,-4.16,10.14
20.519,-3.82,6.59,-3.82,8.52
20.530,-2.48,3.90,-2.63,5.31
20.540,-1.42,1.34,-1.72,2.60
20.549,-0.84,-0.10,-0.91,1.24
20.560,-0.44,-0.82,-0.17,0.94
20.569,-0.13,-1.33,0.43,1.41
20.580,0.09,-1.96,0.76,2.11
20.589,0.41,-2.74,0.87,2.91
20.600,0.77,-3.61,0.82,3.78
20.609,1.07,-4.52,0.71,4.70
20.620,1.27,-5.41,0.76,5.61
20.629,1.43,-6.41,0.91,6.63
20.639,1.57,-7.50,0.90,7.71
20.649,1.58,-8.64,0.61,8.81
20.659,1.44,-9.46,0.19,9.57
20.669,1.15,-9.50,-0.13,9.57
20.680,0.95,-8.29,-0.36,8.35
20.689,0.84,-6.25,-1.10,6.40
20.699,0.63,-4.20,-1.89,4.65
20.709,0.27,-2.06,-2.11,2.96
20.719,0.13,0.23,-2.20,2.21
20.729,0.31,2.64,-2.01,3.33
20.739,0.87,4.82,-1.57,5.14
20.749,1.39,6.82,-1.04,7.03
20.759,1.33,8.12,0.14,8.23
20.769,0.50,6.35,2.19,6.73
20.779,-0.06,3.02,4.23,5.20
20.789,-0.24,0.89,5.08,5.16
20.799,0.00,-0.72,4.41,4.47
20.809,0.32,-1.73,3.06,3.53
20.819,0.42,-2.26,1.64,2.83
20.829,0.43,-2.42,0.67,2.55
20.839,0.59,-2.27,-0.02,2.34
20.849,0.72,-1.92,-0.83,2.22
20.859,0.60,-1.73,-1.57,2.41
20.869,0.39,-1.85,-1.78,2.60
20.879,0.37,-2.15,-1.22,2.50
20.889,0.56,-2.32,-0.26,2.40
20.899,0.77,-2.39,0.42,2.54
20.909,0.84,-2.57,0.81,2.82
20.919,0.85,-2.85,0.99,3.13
20.929,0.85,-3.09,1.03,3.36
20.939,0.87,-3.15,0.87,3.38
20.949,0.88,-3.10,0.45,3.26
20.959,0.90,-3.05,-0.18,3.18
20.969,1.01,-3.05,-0.99,3.36
20.979,1.13,-3.22,-1.73,3.83
20.989,1.21,-3.45,-2.32,4.33
20.999,1.31,-3.46,-2.78,4.63
21.009,1.49,-3.05,-3.12,4.61
21.019,1.77,-2.25,-3.18,4.28
21.029,2.20,-1.00,-2.70,3.62
21.039,2.87,0.70,-1.58,3.35
21.049,3.34,3.51,0.18,4.85
21.059,2.74,8.38,1.51,8.95
21.069,0.80,13.29,0.55,13.33
21.080,-1.39,14.39,0.48,14.47
21.090,-1.99,13.79,1.13,13.97
21.100,-2.60,12.37,1.95,12.79
21.109,-4.29,8.87,2.68,10.21
21.119,-4.11,5.38,1.37,6.91
21.129,-2.12,3.96,1.19,4.65
21.139,-0.19,3.19,1.02,3.35
21.148,0.96,1.76,-0.32,2.04
21.159,1.55,0.23,-2.02,2.55
21.169,1.79,-1.52,-3.24,4.00
21.179,1.67,-3.07,-2.90,4.54
21.188,1.44,-4.00,-1.41,4.48
21.199,1.00,-3.88,0.52,4.04
21.209,0.33,-3.52,1.76,3.95
21.219,-0.11,-3.38,1.94,3.90
21.229,-0.48,-3.31,1.64,3.73
21.239,-0.92,-3.29,1.36,3.68
21.249,-1.52,-3.35,1.26,3.89
21.259,-2.35,-3.57,1.27,4.46
21.268,-3.28,-3.83,1.31,5.21
21.279,-4.21,-3.98,1.37,5.95
21.288,-4.98,-3.89,1.21,6.43
21.298,-5.34,-3.46,0.71,6.41
21.308,-4.97,-2.99,0.09,5.81
21.318,-3.94,-2.84,-0.15,4.86
21.329,-2.91,-2.68,0.06,3.96
21.338,-2.16,-2.06,0.42,3.02
21.348,-1.62,-1.06,0.67,2.05
21.358,-1.04,0.11,0.50,1.16
21.368,-0.22,1.41,0.04,1.42
21.378,0.85,2.54,-0.55,2.73
21.388,1.94,3.15,-0.66,3.75
21.398,2.87,2.95,-0.01,4.12
21.408,3.51,1.89,0.92,4.09
21.418,3.48,0.20,1.58,3.83
21.428,2.97,-1.57,1.48,3.67
21.438,2.50,-2.84,0.80,3.87
21.448,2.00,-3.49,0.06,4.02
21.458,1.39,-3.59,-0.52,3.89
21.468,0.75,-3.42,-0.95,3.63
21.478,0.24,-3.10,-1.38,3.40
21.488,-0.18,-2.61,-1.63,3.08
21.498,-0.54,-2.05,-1.67,2.70
21.508,-0.90,-1.63,-1.37,2.32
21.518,-1.28,-1.33,-0.76,2.00
21.528,-1.58,-1.10,-0.01,1.93
21.538,-1.73,-0.96,0.63,2.07
21.548,-1.64,-0.91,0.93,2.10
21.558,-1.32,-1.05,0.77,1.86
21.568,-0.84,-1.38,0.32,1.65
21.578,-0.27,-1.54,-0.30,1.59
21.588,0.14,-1.42,-1.15,1.84
21.598,0.38,-1.24,-2.04,2.42
21.608,0.55,-1.34,-2.63,3.01
21.618,0.72,-1.63,-3.02,3.51
21.628,0.92,-1.84,-3.16,3.77
21.638,1.18,-1.81,-3.01,3.70
21.648,1.46,-1.56,-2.72,3.46
21.658,1.73,-1.00,-2.44,3.16
21.668,1.94,-0.01,-2.26,2.98
21.678,2.09,1.47,-2.13,3.32
21.688,2.08,3.58,-1.71,4.48
21.698,1.73,6.39,-0.88,6.68
21.708,0.84,10.01,0.74,10.07
21.718,-0.60,13.66,3.48,14.11
21.729,-1.99,15.79,4.56,16.56
21.739,-1.50,14.70,4.21,15.36
21.748,0.61,9.34,4.14,10.24
21.758,1.55,5.22,3.24,6.33
21.768,0.78,3.52,1.42,3.87
21.778,-1.17,3.42,-0.66,3.68
21.788,-3.34,3.97,-1.82,5.50
21.798,-4.60,4.72,-2.62,7.10
21.808,-4.75,5.02,-3.15,7.60
21.818,-4.30,4.06,-3.00,6.63
21.828,-3.33,2.27,-2.36,4.67
21.838,-1.76,0.65,-1.45,2.37
21.848,-0.76,-0.70,-0.71,1.25
21.857,-0.23,-1.51,-0.27,1.55
21.868,0.15,-2.11,0.07,2.12
21.878,0.43,-2.84,0.28,2.88
21.887,0.67,-3.69,0.39,3.77
21.897,0.93,-4.50,0.44,4.61
21.908,1.14,-5.31,0.49,5.45
21.918,1.26,-6.14,0.60,6.30
21.928,1.27,-7.03,0.77,7.19
21.938,1.14,-8.16,1.04,8.31
21.948,0.91,-9.32,1.18,9.44
21.957,0.47,-9.85,1.32,9.95
21.968,0.09,-9.16,1.53,9.28
21.977,0.16,-6.82,1.04,6.90
21.988,0.04,-4.28,-0.10,4.28
21.997,-0.29,-2.16,-1.07,2.42
22.007,-0.61,0.21,-1.41,1.55
22.017,-0.43,2.97,-1.88,3.54
22.027,0.71,5.63,-2.44,6.17
22.037,2.24,7.76,-2.27,8.39
22.047,3.03,8.77,-0.46,9.29
22.057,2.52,6.74,1.91,7.44
22.067,1.43,2.84,3.25,4.55
22.077,0.45,0.32,4.22,4.25
22.087,-0.28,-1.50,4.61,4.86
22.097,-0.29,-2.68,3.79,4.65
22.107,0.13,-3.38,2.08,3.97
22.117,0.49,-3.76,0.87,3.89
22.127,0.72,-3.81,0.08,3.88
22.137,0.66,-3.40,-0.94,3.59
22.147,0.39,-2.77,-1.96,3.42
22.157,0.08,-2.37,-2.38,3.36
22.167,-0.05,-2.28,-1.94,2.99
22.177,0.21,-2.11,-1.00,2.34
22.187,0.54,-1.83,0.14,1.92
22.197,0.69,-1.59,1.19,2.11
22.207,0.70,-1.59,1.99,2.64
22.217,0.76,-1.61,2.23,2.85
22.227,0.96,-1.39,1.80,2.47
22.237,1.10,-1.30,0.74,1.86
22.247,1.09,-1.74,-0.50,2.11
22.257,1.12,-2.29,-1.57,3.00
22.267,1.26,-2.73,-2.25,3.75
22.277,1.44,-3.05,-2.56,4.24
22.287,1.61,-3.24,-2.73,4.53
22.297,1.77,-3.18,-2.80,4.59
22.307,1.93,-2.77,-2.68,4.32
22.317,2.11,-1.93,-2.19,3.61
22.327,2.42,-0.83,-1.20,2.83
22.337,2.93,0.34,0.00,2.95
22.347,3.45,1.96,1.47,4.23
22.357,3.30,4.90,2.60,6.46
22.367,2.05,8.76,1.88,9.19
22.377,0.14,11.16,0.15,11.16
22.388,-1.30,11.24,-0.68,11.33
22.398,-2.31,10.51,-0.52,10.77
22.407,-3.68,9.23,0.36,9.94
22.417,-4.30,7.26,0.03,8.44
22.427,-2.86,3.96,-0.11,4.89
22.437,-0.08,2.11,0.57,2.19
22.447,1.95,1.44,0.24,2.44
22.457,2.97,0.94,-0.75,3.21
22.467,3.25,0.83,-1.75,3.78
22.477,2.83,0.94,-2.35,3.80
22.487,1.76,0.98,-2.07,2.89
22.497,0.35,1.08,-0.69,1.32
22.507,-0.68,1.07,0.96,1.59
22.517,-1.01,0.57,1.91,2.24
22.526,-0.92,0.04,2.14,2.33
22.537,-0.71,-0.38,1.71,1.89
22.546,-0.71,-1.19,1.17,1.81
22.557,-1.07,-2.40,0.95,2.79
22.566,-1.55,-3.74,0.94,4.16
22.577,-2.02,-5.11,0.93,5.57
22.586,-2.41,-6.35,0.85,6.85
22.596,-2.78,-7.26,0.71,7.81
22.606,-3.22,-7.69,0.42,8.35
22.616,-3.74,-7.45,-0.22,8.34
22.626,-4.21,-6.58,-1.12,7.89
22.636,-4.40,-5.11,-1.82,6.98
22.646,-4.13,-3.33,-1.83,5.62
22.657,-3.31,-1.77,-1.22,3.95
22.666,-2.21,-0.54,-0.36,2.31
22.676,-1.06,0.58,0.54,1.32
22.686,0.06,1.59,1.33,2.07
22.697,1.13,2.30,1.70,3.08
22.706,1.85,2.57,1.71,3.60
22.717,1.99,2.30,1.59,3.43
22.726,1.66,1.53,1.59,2.76
22.737,1.16,0.58,1.57,2.04
22.746,0.68,-0.40,0.98,1.26
22.756,0.25,-1.05,0.06,1.08
22.766,-0.05,-1.32,-0.72,1.51
22.776,-0.33,-1.53,-1.29,2.03
22.786,-0.67,-1.67,-1.78,2.53
22.796,-0.99,-1.61,-2.00,2.75
22.806,-1.28,-1.49,-1.88,2.72
22.816,-1.51,-1.33,-1.47,2.49
22.826,-1.62,-1.11,-0.86,2.14
22.836,-1.53,-0.83,-0.07,1.75
22.846,-1.23,-0.47,0.74,1.51
22.856,-0.71,-0.09,1.46,1.62
22.866,-0.15,0.15,1.74,1.75
22.876,0.35,0.29,1.46,1.53
22.886,0.72,0.42,0.81,1.16
22.896,0.96,0.50,-0.18,1.10
22.906,1.10,0.46,-1.13,1.64
22.916,1.13,0.29,-1.72,2.08
22.926,1.05,0.04,-1.90,2.17
22.936,0.86,-0.22,-1.72,1.94
22.946,0.63,-0.44,-1.28,1.49
22.956,0.38,-0.61,-0.90,1.15
22.966,0.13,-0.74,-0.77,1.08
22.976,-0.14,-0.80,-0.73,1.09
22.986,-0.39,-0.88,-0.63,1.15
22.996,-0.62,-1.05,-0.48,1.31
23.006,-0.81,-1.26,-0.39,1.55
23.016,-0.91,-1.54,-0.38,1.83
23.026,-0.85,-1.90,-0.42,2.13
23.036,-0.66,-2.30,-0.48,2.44
23.046,-0.37,-2.72,-0.63,2.82
23.056,-0.11,-3.02,-0.74,3.11
23.066,-0.03,-2.98,-0.81,3.09
23.076,-0.18,-2.32,-1.11,2.58
23.086,-0.49,-0.94,-1.09,1.52
23.096,-0.74,1.29,-0.73,1.66
23.106,-0.32,4.83,-1.41,5.04
23.116,1.61,9.38,-2.70,9.89
23.125,4.48,13.03,-1.48,13.86
23.137,7.30,13.01,2.29,15.09
23.146,6.66,7.39,4.68,11.00
23.156,2.61,4.74,4.04,6.75
23.166,-0.69,6.14,1.93,6.47
23.176,-2.69,7.56,-0.43,8.04
23.185,-3.15,8.54,-1.85,9.29
23.196,-2.76,8.41,-2.52,9.20
23.206,-2.60,6.76,-2.32,7.61
23.216,-2.86,4.77,-1.31,5.71
23.226,-3.15,3.62,-0.52,4.83
23.236,-3.08,3.45,-0.10,4.63
23.246,-2.64,3.36,0.24,4.28
23.256,-2.08,2.54,0.48,3.32
23.266,-1.65,1.14,0.74,2.14
23.275,-1.29,-0.32,0.72,1.52
23.286,-0.83,-1.59,0.59,1.89
23.296,-0.29,-2.81,0.51,2.87
23.305,0.42,-3.80,0.42,3.84
23.316,1.27,-4.62,0.27,4.80
23.325,2.07,-5.51,0.09,5.89
23.336,2.67,-6.45,-0.11,6.98
23.345,2.98,-7.31,-0.40,7.90
23.355,3.01,-8.00,-0.80,8.58
23.365,2.82,-8.66,-1.15,9.18
23.375,2.62,-9.21,-1.42,9.68
23.385,2.37,-9.22,-1.48,9.64
23.395,2.01,-8.12,-1.50,8.50
23.405,1.66,-5.87,-1.74,6.35
23.415,1.32,-3.21,-1.81,3.91
23.425,0.89,-0.18,-1.48,1.74
23.435,0.72,2.62,-1.13,2.94
23.445,0.84,5.51,-1.33,5.73
23.455,0.60,8.59,-1.65,8.77
23.465,-0.24,10.53,-0.58,10.54
23.475,-1.24,8.85,1.82,9.12
23.485,-1.32,4.14,3.92,5.86
23.495,-1.11,0.99,4.82,5.05
23.505,-0.79,-0.79,4.62,4.76
23.515,-0.59,-1.74,3.86,4.28
23.525,-0.36,-2.06,2.74,3.45
23.535,-0.08,-2.19,1.72,2.78
23.545,0.27,-2.17,1.14,2.47
23.555,0.53,-2.22,0.35,2.31
23.565,0.50,-2.50,-0.74,2.65
23.575,0.34,-3.02,-1.65,3.45
23.585,0.25,-3.52,-2.02,4.07
23.595,0.28,-3.72,-1.84,4.16
23.605,0.34,-3.56,-1.37,3.83
23.615,0.36,-3.24,-0.86,3.38
23.625,0.42,-2.82,-0.14,2.85
23.635,0.51,-2.49,0.66,2.63
23.645,0.56,-2.11,1.25,2.52
23.655,0.68,-1.69,1.55,2.39
23.665,0.87,-1.44,1.51,2.26
23.675,1.03,-1.55,1.05,2.13
23.685,1.11,-1.92,0.32,2.24
23.695,1.20,-2.41,-0.34,2.72
23.705,1.31,-2.79,-0.98,3.23
23.715,1.39,-2.83,-1.64,3.55
23.725,1.38,-2.53,-2.32,3.70
23.735,1.29,-1.94,-2.93,3.74
23.745,1.24,-1.13,-3.30,3.71
23.755,1.39,-0.22,-3.20,3.50
23.765,2.03,0.93,-2.32,3.22
23.775,2.87,2.79,-0.52,4.03
23.785,2.78,6.29,1.83,7.12
23.795,1.42,10.53,1.80,10.77
23.805,-0.51,12.36,0.52,12.39
23.815,-2.16,12.22,0.89,12.44
23.826,-3.27,12.15,1.82,12.71
23.835,-4.54,11.28,1.98,12.32
23.845,-5.24,8.48,1.11,10.03
23.855,-3.54,4.84,0.62,6.02
23.864,-1.20,3.33,0.56,3.58
23.874,0.10,2.40,-0.28,2.41
23.885,0.69,1.12,-1.52,2.01
23.894,0.88,-0.32,-2.35,2.53
23.905,0.92,-1.90,-2.48,3.26
23.915,0.84,-3.14,-1.37,3.53
23.924,0.83,-3.66,0.44,3.78
23.935,0.69,-3.57,1.89,4.10
23.945,0.46,-3.48,2.19,4.14
23.955,0.15,-3.47,1.67,3.86
23.965,-0.26,-3.67,1.11,3.84
23.975,-0.73,-4.02,0.84,4.17
23.984,-1.28,-4.57,0.80,4.81
23.995,-1.90,-5.11,0.78,5.51
24.004,-2.50,-5.44,0.80,6.04
24.015,-3.03,-5.42,0.81,6.26
24.024,-3.33,-5.00,0.62,6.04
24.034,-3.21,-4.29,0.08,5.36
24.044,-2.77,-3.46,-0.46,4.45
24.054,-2.30,-2.65,-0.54,3.55
24.064,-1.95,-1.89,-0.17,2.72
24.074,-1.73,-0.86,0.22,1.95
24.084,-1.44,0.40,0.30,1.53
24.094,-0.77,1.56,-0.00,1.74
24.104,0.40,2.52,-0.32,2.58
24.115,1.75,3.06,-0.24,3.53
24.124,2.75,2.74,0.23,3.89
24.134,3.10,1.64,0.81,3.60
24.144,2.80,0.33,1.19,3.06
24.154,2.26,-0.71,0.96,2.55
24.164,1.71,-1.30,0.13,2.16
24.174,1.24,-1.53,-0.74,2.10
24.184,0.91,-1.57,-1.29,2.23
24.194,0.73,-1.67,-1.63,2.45
24.204,0.66,-1.88,-1.85,2.72
24.214,0.53,-2.07,-1.93,2.88
24.224,0.25,-2.03,-1.72,2.67
24.234,-0.20,-1.93,-1.17,2.26
24.244,-0.71,-1.80,-0.54,2.00
24.254,-1.13,-1.51,0.16,1.89
24.264,-1.40,-1.21,0.91,2.06
24.274,-1.32,-0.80,1.37,2.07
24.284,-1.02,-0.47,1.42,1.81
24.294,-0.62,-0.35,1.11,1.32
24.304,-0.25,-0.36,0.46,0.63
24.314,0.06,-0.41,-0.46,0.62
24.324,0.27,-0.48,-1.39,1.50
24.334,0.42,-0.58,-2.10,2.22
24.344,0.55,-0.68,-2.37,2.52
24.354,0.76,-0.74,-2.22,2.46
24.364,0.89,-0.83,-1.86,2.23
24.374,0.77,-0.99,-1.56,2.01
24.384,0.54,-1.19,-1.47,1.97
24.394,0.41,-1.35,-1.42,2.00
24.404,0.28,-1.38,-1.23,1.87
24.414,0.09,-1.31,-0.99,1.64
24.424,-0.13,-1.12,-0.77,1.37
24.434,-0.35,-0.81,-0.61,1.07
24.444,-0.51,-0.30,-0.45,0.74
24.454,-0.65,0.40,-0.32,0.83
24.464,-0.84,1.31,-0.27,1.58
24.474,-1.20,2.48,-0.40,2.79
24.483,-1.73,3.79,-0.87,4.26
24.494,-2.30,5.32,-1.03,5.88
24.504,-2.40,7.03,-0.59,7.45
24.514,-1.14,8.70,-0.18,8.78
24.524,1.56,8.65,-0.15,8.79
24.534,3.81,6.23,-0.05,7.30
24.544,3.99,3.71,0.58,5.48
24.554,2.38,2.78,1.06,3.81
24.564,0.03,3.38,0.66,3.44
24.574,-1.95,4.22,-0.26,4.65
24.584,-3.02,5.13,-0.79,6.00
24.594,-3.25,6.06,-1.02,6.96
24.604,-3.15,6.48,-0.76,7.25
24.614,-3.11,6.27,-0.50,7.01
24.623,-3.16,5.94,-0.49,6.75
24.633,-3.22,5.10,-0.26,6.04
24.644,-2.74,3.46,0.08,4.42
24.653,-1.85,1.68,0.64,2.58
24.664,-1.13,0.40,1.05,1.59
24.673,-0.71,-0.59,1.11,1.44
24.683,-0.44,-1.57,0.93,1.88
24.693,-0.12,-2.73,0.70,2.82
24.703,0.25,-3.89,0.65,3.95
24.713,0.60,-4.85,0.57,4.92
24.723,0.94,-5.77,0.44,5.86
24.733,1.23,-6.85,0.35,6.96
24.743,1.42,-7.89,0.11,8.02
24.753,1.48,-8.72,-0.17,8.85
24.763,1.61,-9.17,-0.65,9.33
24.773,1.90,-9.26,-1.54,9.58
24.783,2.07,-8.70,-2.29,9.23
24.793,2.01,-7.50,-2.63,8.19
24.803,1.94,-5.91,-2.55,6.72
24.813,1.76,-4.18,-2.10,5.00
24.823,1.63,-1.98,-1.60,3.02
24.833,1.70,0.72,-1.12,2.16
24.843,1.75,3.71,-0.56,4.14
24.853,1.55,6.80,0.17,6.98
24.863,1.14,10.15,0.45,10.22
24.873,0.20,11.92,1.34,12.00
24.883,-0.93,9.08,2.93,9.59
24.893,-1.03,3.95,4.23,5.88
24.903,-0.82,1.14,4.22,4.45
24.913,-0.68,-0.48,3.47,3.57
24.923,-0.69,-1.48,2.68,3.14
24.933,-0.59,-1.97,1.67,2.65
24.943,-0.23,-2.33,0.75,2.46
24.953,0.07,-2.87,0.46,2.91
24.963,0.22,-3.22,0.46,3.26
24.973,0.18,-3.17,0.09,3.18
24.983,0.21,-3.09,-0.64,3.16
24.993,0.38,-2.87,-1.12,3.10
25.003,0.62,-2.48,-1.11,2.79
25.013,0.99,-2.22,-0.84,2.57
25.023,1.30,-2.09,-0.50,2.51
25.033,1.49,-1.92,0.07,2.43
25.043,1.63,-1.85,0.78,2.58
25.053,1.86,-1.76,1.27,2.86
25.063,2.08,-1.95,1.36,3.16
25.073,1.92,-2.28,1.02,3.15
25.083,1.43,-2.48,0.35,2.88
25.093,1.02,-2.72,-0.38,2.93
25.103,0.73,-3.10,-1.01,3.34
25.113,0.56,-3.59,-1.52,3.94
25.123,0.45,-3.89,-1.95,4.37
25.133,0.41,-3.79,-2.31,4.46
25.143,0.42,-3.30,-2.63,4.24
25.153,0.43,-2.57,-2.89,3.89
25.163,0.50,-1.64,-3.04,3.49
25.173,0.62,-0.44,-2.98,3.08
25.183,0.88,1.18,-2.29,2.72
25.193,1.50,3.58,-0.46,3.91
25.203,2.69,6.08,1.48,6.81
25.213,3.33,9.02,3.31,10.17
25.223,2.22,12.33,3.23,12.94
25.233,-0.70,14.18,2.50,14.42
25.243,-2.77,14.41,2.07,14.82
25.254,-4.63,13.41,1.53,14.27
25.262,-6.23,10.49,-0.12,12.20
25.272,-5.28,6.12,-1.17,8.17
25.282,-1.85,2.71,-0.35,3.30
25.293,1.16,1.56,0.11,1.95
25.303,2.66,0.43,-0.46,2.74
25.313,3.37,-0.79,-1.62,3.82
25.322,3.54,-2.38,-2.94,5.18
25.333,3.08,-3.91,-2.80,5.71
25.343,2.13,-4.47,-1.13,5.08
25.353,1.11,-3.74,0.80,3.98
25.362,0.25,-3.29,1.88,3.80
25.373,-0.23,-3.58,1.88,4.06
25.382,-0.56,-3.78,1.42,4.07
25.392,-0.96,-3.85,1.12,4.12
25.402,-1.54,-4.00,0.90,4.39
25.412,-2.29,-4.26,0.68,4.89
25.422,-3.03,-4.49,0.63,5.45
25.432,-3.65,-4.78,0.71,6.06
25.442,-4.00,-5.02,0.68,6.46
25.452,-3.72,-5.05,0.35,6.28
25.462,-2.89,-4.96,-0.16,5.74
25.472,-1.92,-4.76,-0.60,5.17
25.482,-1.26,-4.46,-0.72,4.69
25.492,-1.05,-3.87,-0.37,4.03
25.502,-1.08,-2.75,-0.00,2.95
25.512,-0.97,-1.38,-0.05,1.69
25.522,-0.52,0.10,-0.49,0.72
25.532,0.26,1.61,-1.04,1.93
25.542,1.18,2.78,-1.30,3.28
25.552,2.02,3.24,-0.85,3.91
25.562,2.69,2.88,0.23,3.95
25.572,2.78,1.53,1.22,3.40
25.582,2.43,-0.08,1.51,2.86
25.592,1.91,-1.43,1.19,2.66
25.602,1.37,-2.05,0.52,2.52
25.612,0.77,-1.87,-0.04,2.03
25.622,0.13,-1.36,-0.45,1.44
25.632,-0.38,-0.87,-0.75,1.21
25.642,-0.77,-0.51,-1.01,1.37
25.652,-1.13,-0.33,-1.20,1.69
25.662,-1.58,-0.24,-1.16,1.98
25.672,-2.07,-0.08,-0.63,2.17
25.682,-2.45,0.13,0.48,2.50
25.692,-2.53,0.18,1.48,2.93
25.702,-2.11,0.04,1.78,2.76
25.712,-1.40,-0.43,1.54,2.13
25.722,-0.67,-1.07,0.89,1.54
25.732,0.02,-1.53,-0.04,1.53
25.742,0.60,-1.82,-1.17,2.24
25.752,1.10,-1.86,-2.17,3.07
25.762,1.47,-1.74,-2.83,3.63
25.772,1.53,-1.69,-3.06,3.82
25.782,1.37,-1.60,-2.84,3.54
25.792,1.20,-1.51,-2.44,3.11
25.802,1.15,-1.54,-2.05,2.81
25.812,1.13,-1.63,-1.65,2.58
25.822,1.03,-1.64,-1.29,2.33
25.832,0.82,-1.34,-1.05,1.89
25.842,0.40,-0.47,-1.04,1.21
25.852,-0.21,1.13,-1.20,1.66
25.862,-0.98,3.32,-1.28,3.69
25.872,-2.02,5.75,-1.26,6.22
25.882,-3.53,8.37,-0.84,9.12
25.891,-5.39,10.90,0.97,12.20
25.902,-6.42,12.29,3.15,14.22
25.912,-4.49,11.36,3.45,12.69
25.922,-0.66,7.94,2.96,8.50
25.931,1.72,4.75,1.91,5.41
25.942,2.11,2.37,0.91,3.30
25.952,0.58,1.53,-0.06,1.64
25.962,-2.04,2.26,-0.78,3.14
25.972,-3.98,3.12,-1.18,5.20
25.981,-4.61,3.89,-1.72,6.27
25.992,-4.15,4.60,-2.02,6.52
26.002,-3.29,4.57,-1.39,5.81
26.012,-2.45,3.49,-0.24,4.27
26.021,-1.64,2.23,0.02,2.77
26.031,-0.80,1.31,-0.18,1.55
26.041,0.11,0.61,-0.35,0.71
26.051,0.72,-0.14,-0.49,0.88
26.061,0.94,-0.93,-0.54,1.42
26.071,1.00,-1.82,-0.48,2.13
26.081,1.08,-2.80,-0.35,3.02
26.091,1.30,-3.73,-0.30,3.96
26.101,1.68,-4.77,-0.15,5.06
26.111,2.17,-5.81,0.29,6.21
26.121,2.62,-6.93,0.71,7.44
26.131,2.87,-7.93,0.83,8.47
26.141,2.99,-8.61,0.55,9.13
26.151,2.93,-9.03,-0.10,9.50
26.161,2.59,-8.91,-0.68,9.30
26.171,1.92,-7.28,-1.08,7.61
26.181,1.37,-4.96,-1.39,5.33
26.191,0.93,-2.84,-1.47,3.33
26.201,0.69,-0.94,-1.56,1.95
26.211,0.73,0.89,-1.52,1.91
26.221,1.04,3.20,-1.18,3.57
26.231,1.24,5.04,-0.68,5.24
26.241,1.01,6.26,0.15,6.34
26.251,0.30,7.21,1.27,7.33
26.261,-0.83,5.69,2.53,6.28
26.271,-1.46,2.60,4.02,5.01
26.281,-1.61,0.57,4.76,5.06
26.291,-1.43,-0.86,4.00,4.33
26.301,-0.87,-1.68,2.48,3.12
26.311,-0.34,-2.19,1.13,2.49
26.321,0.06,-2.57,0.08,2.57
26.331,0.29,-2.79,-0.31,2.82
26.341,0.33,-2.67,-0.64,2.76
26.351,0.19,-2.15,-0.95,2.36
26.361,0.15,-1.75,-1.14,2.10
26.371,0.32,-1.60,-0.94,1.89
26.381,0.76,-1.46,-0.58,1.74
26.391,1.27,-1.15,-0.02,1.71
26.401,1.72,-0.80,0.54,1.97
26.411,2.03,-0.67,0.90,2.32
26.421,2.26,-0.74,1.04,2.60
26.431,2.29,-0.89,1.14,2.71
26.441,1.92,-0.95,1.09,2.40
26.451,1.45,-1.36,0.73,2.12
26.461,1.20,-1.98,0.25,2.33
26.471,1.06,-2.50,-0.20,2.72
26.481,0.93,-3.05,-0.64,3.25
26.491,0.89,-3.62,-1.01,3.86
26.501,0.98,-3.95,-1.31,4.27
26.511,1.17,-4.00,-1.60,4.47
26.521,1.30,-3.82,-1.83,4.43
26.531,1.27,-3.40,-1.93,4.11
26.541,1.20,-2.85,-2.05,3.71
26.551,1.29,-2.15,-1.88,3.14
26.561,1.65,-1.27,-1.25,2.42
26.571,2.15,0.50,-0.11,2.21
26.581,2.55,3.56,0.86,4.46
26.591,2.28,7.03,0.82,7.43
26.600,0.85,10.00,-0.12,10.04
26.611,-0.90,11.68,-0.50,11.72
26.622,-2.06,12.56,-0.07,12.73
26.632,-3.04,12.43,1.32,12.87
26.641,-3.53,10.01,2.02,10.80
26.650,-2.24,5.84,1.01,6.34
26.660,-0.17,4.44,0.76,4.51
26.670,1.37,3.95,0.42,4.20
26.680,2.19,2.96,-0.32,3.70
26.690,2.42,2.08,-1.21,3.41
26.700,2.31,1.08,-2.36,3.48
26.710,1.62,0.19,-2.36,2.86
26.720,0.66,-0.30,-1.25,1.44
26.731,0.07,-0.29,0.20,0.36
26.740,-0.32,-0.69,1.35,1.55
26.750,-0.64,-1.43,1.76,2.36
26.760,-0.92,-2.08,1.57,2.76
26.770,-1.33,-2.73,1.28,3.29
26.780,-1.84,-3.39,1.19,4.04
26.790,-2.49,-4.00,1.25,4.88
26.800,-3.21,-4.51,1.28,5.68
26.810,-3.93,-4.87,1.36,6.41
26.820,-4.56,-4.99,1.47,6.92
26.830,-4.97,-4.91,1.40,7.13
26.840,-4.97,-4.68,0.97,6.89
26.850,-4.35,-4.37,0.44,6.18
26.860,-3.29,-3.79,0.02,5.02
26.870,-2.32,-2.95,-0.16,3.76
26.880,-1.72,-2.01,-0.05,2.65
26.890,-1.43,-0.97,0.03,1.73
26.900,-1.25,0.12,-0.20,1.27
26.910,-0.98,1.10,-0.59,1.59
26.920,-0.49,1.73,-0.90,2.01
26.930,0.28,1.88,-0.95,2.12
26.940,1.08,1.25,-0.62,1.76
26.950,1.55,0.09,-0.26,1.57
26.960,1.62,-0.94,0.05,1.87
26.970,1.33,-1.63,0.20,2.12
26.980,0.84,-1.79,-0.04,1.98
26.990,0.31,-1.70,-0.50,1.80
27.000,-0.22,-1.59,-0.96,1.87
27.010,-0.65,-1.38,-1.37,2.05
27.020,-0.94,-1.15,-1.64,2.21
27.030,-0.99,-1.02,-1.68,2.20
27.040,-0.89,-0.93,-1.51,1.98
27.050,-0.82,-0.79,-1.19,1.65
27.060,-0.92,-0.49,-0.49,1.15
27.070,-1.16,-0.32,0.15,1.21
27.080,-1.25,-0.17,0.54,1.37
27.090,-1.13,-0.08,0.74,1.35
27.100,-0.79,-0.04,0.64,1.02
27.110,-0.37,-0.13,0.36,0.53
27.120,-0.05,-0.38,-0.13,0.40
27.130,0.08,-0.78,-0.70,1.05
27.140,0.03,-1.16,-1.21,1.68
27.150,-0.16,-1.50,-1.58,2.18
27.160,-0.32,-1.71,-1.77,2.48
27.170,-0.39,-1.79,-1.71,2.51
27.180,-0.42,-1.85,-1.60,2.48
27.190,-0.39,-1.80,-1.50,2.38
27.200,-0.33,-1.67,-1.44,2.23
27.210,-0.23,-1.44,-1.34,1.98
27.220,-0.12,-1.20,-1.30,1.78
27.230,0.02,-0.98,-1.18,1.53
27.240,0.15,-0.74,-0.87,1.16
27.250,0.28,-0.55,-0.56,0.83
27.259,0.37,-0.52,-0.24,0.68
27.270,0.36,-0.72,0.06,0.81
27.279,0.31,-0.94,0.25,1.02
27.290,0.27,-1.16,0.26,1.22
27.299,0.29,-1.34,0.05,1.37
27.310,0.37,-1.38,-0.34,1.47
27.319,0.48,-1.27,-0.74,1.55
27.330,0.56,-1.06,-1.15,1.66
27.339,0.52,-0.76,-1.50,1.76
27.350,0.33,-0.39,-1.85,1.92
27.359,0.07,0.09,-2.27,2.27
27.369,-0.10,0.61,-2.62,2.69
27.379,-0.09,1.11,-2.83,3.04
27.389,-0.00,1.54,-2.87,3.26
27.399,0.00,1.99,-2.78,3.42
27.409,-0.20,2.62,-2.58,3.68
27.419,-0.53,3.51,-2.18,4.17
27.429,-0.97,4.73,-1.69,5.12
27.439,-1.49,6.26,-1.29,6.56
27.449,-2.02,7.99,-1.01,8.30
27.459,-2.37,9.63,-0.55,9.94
27.469,-1.93,10.22,0.51,10.41
27.480,-0.74,9.83,1.79,10.02
27.490,0.38,9.38,2.08,9.62
27.499,1.04,8.52,1.28,8.67
27.509,1.35,7.74,0.93,7.91
27.519,1.22,7.00,0.91,7.16
27.529,0.52,6.31,0.91,6.40
27.539,-0.58,5.77,0.87,5.87
27.549,-1.68,5.28,0.67,5.58
27.559,-2.53,4.43,0.32,5.11
27.569,-2.79,3.39,-0.08,4.39
27.579,-2.60,2.16,-0.40,3.41
27.589,-2.19,0.60,-0.64,2.36
27.599,-1.68,-1.05,-0.83,2.15
27.609,-1.15,-2.61,-1.03,3.03
27.619,-0.66,-4.13,-1.19,4.35
27.629,-0.24,-5.49,-1.22,5.63
27.639,0.09,-6.60,-1.29,6.72
27.649,0.33,-7.48,-1.40,7.62
27.659,0.42,-8.09,-1.46,8.24
27.669,0.43,-8.56,-1.45,8.69
27.679,0.30,-8.85,-1.38,8.96
27.689,0.11,-9.09,-1.43,9.20
27.699,-0.10,-8.87,-1.66,9.02
27.709,-0.28,-7.62,-1.82,7.84
27.719,-0.31,-6.43,-1.77,6.68
27.729,-0.35,-5.59,-1.54,5.80
27.739,-0.34,-4.53,-1.44,4.77
27.749,-0.37,-3.24,-1.46,3.57
27.759,-0.43,-1.93,-1.50,2.48
27.769,-0.39,-0.44,-1.48,1.59
27.779,-0.15,1.11,-1.68,2.02
27.789,0.32,2.30,-1.81,2.94
27.799,1.10,2.77,-1.77,3.47
27.809,2.12,2.21,-1.59,3.45
27.819,2.92,1.30,-1.34,3.47
27.829,3.38,0.75,-0.88,3.57
27.839,3.48,0.27,-0.21,3.50
27.849,3.23,-0.25,0.42,3.26
27.859,2.68,-0.61,0.81,2.86
27.869,2.06,-0.69,0.86,2.33
27.879,1.61,-0.75,0.64,1.89
27.889,1.31,-0.81,0.31,1.57
27.899,1.19,-0.77,0.06,1.42
27.909,1.08,-0.55,-0.03,1.22
27.919,1.00,-0.19,-0.20,1.03
27.929,0.88,0.16,-0.53,1.04
27.938,0.67,0.29,-0.89,1.15
27.949,0.38,0.09,-1.20,1.27
27.958,0.17,-0.34,-1.35,1.40
27.968,0.07,-0.84,-1.18,1.45
27.979,-0.01,-1.27,-0.78,1.49
27.989,0.02,-1.59,-0.37,1.64
27.998,0.17,-1.81,-0.12,1.82
28.009,0.41,-1.88,-0.08,1.93
28.019,0.66,-1.74,-0.22,1.87
28.028,0.94,-1.38,-0.52,1.75
28.038,1.24,-0.87,-0.85,1.73
28.049,1.52,-0.31,-1.06,1.88
28.058,1.74,0.23,-1.08,2.06
28.068,1.91,0.69,-0.88,2.21
28.078,2.00,1.05,-0.53,2.32
28.088,2.00,1.24,-0.18,2.36
28.098,1.94,1.26,0.07,2.32
28.108,1.80,1.21,0.24,2.18
28.118,1.59,0.95,0.39,1.89
28.128,1.40,0.65,0.51,1.62
28.138,1.42,0.41,0.43,1.54
28.148,1.62,0.13,0.38,1.66
28.158,1.86,-0.17,0.37,1.90
28.168,2.05,-0.44,0.28,2.12
28.178,2.12,-0.68,0.23,2.24
28.188,2.08,-0.80,0.22,2.24
28.198,1.88,-0.81,0.13,2.05
28.208,1.44,-0.71,-0.02,1.61
28.218,0.77,-0.40,-0.34,0.93
28.228,-0.12,0.10,-0.84,0.86
28.238,-1.15,0.73,-1.22,1.83
28.248,-2.00,1.64,-1.42,2.95
28.258,-2.58,2.67,-1.63,4.06
28.268,-2.85,3.40,-1.83,4.80
28.278,-2.77,3.24,-1.78,4.62
28.288,-1.78,1.61,-1.39,2.78
28.298,-0.39,-0.18,-0.91,1.00
28.308,0.64,-1.52,-0.58,1.75
28.318,1.50,-2.53,-0.38,2.96
28.328,2.30,-3.20,-0.26,3.96
28.338,3.06,-3.62,-0.13,4.74
28.348,3.76,-3.62,0.01,5.23
28.358,4.39,-2.95,0.13,5.29
28.368,4.80,-1.58,0.35,5.06
28.378,4.96,-0.11,0.62,5.00
28.388,4.89,1.10,0.70,5.06
28.398,4.66,2.17,0.64,5.18
28.408,4.12,3.13,0.70,5.22
28.418,2.93,3.52,1.08,4.70
28.428,1.51,3.30,1.59,3.96
28.438,0.28,2.82,1.73,3.32
28.448,-0.74,2.12,1.44,2.67
28.458,-1.52,1.26,1.10,2.26
28.468,-2.00,0.39,0.77,2.18
28.478,-2.25,-0.32,0.45,2.32
28.488,-2.41,-0.91,0.19,2.58
28.498,-2.51,-1.56,0.06,2.95
28.508,-2.47,-2.21,-0.13,3.31
28.518,-2.25,-2.48,-0.46,3.39
28.528,-1.98,-2.14,-0.93,3.06
28.538,-1.78,-1.41,-1.43,2.68
28.548,-1.60,-0.71,-1.87,2.56
28.558,-1.46,-0.11,-2.31,2.74
28.568,-1.47,0.42,-2.72,3.12
28.578,-1.61,0.87,-2.89,3.42
28.588,-1.62,1.10,-2.84,3.45
28.598,-1.15,0.83,-2.61,2.97
28.608,-0.25,0.19,-2.04,2.06
28.618,0.73,-0.34,-1.29,1.52
28.628,1.43,-0.67,-0.63,1.70
28.637,1.54,-0.54,-0.08,1.63
28.648,1.02,-0.23,0.10,1.05
28.657,0.17,-0.12,-0.02,0.21
28.668,-0.49,-0.00,-0.18,0.52
28.677,-0.78,0.13,-0.52,0.95
28.688,-0.81,0.19,-0.85,1.19
28.697,-0.67,0.27,-0.97,1.21
28.708,-0.50,0.61,-0.89,1.19
28.717,-0.33,1.07,-0.73,1.34
28.728,-0.16,1.33,-0.59,1.46
28.737,0.04,1.38,-0.34,1.42
28.747,0.30,1.35,-0.15,1.39
28.757,0.67,1.14,0.04,1.32
28.767,1.01,0.81,0.24,1.31
28.777,1.26,0.38,0.39,1.37
28.787,1.42,-0.04,0.45,1.49
28.797,1.57,-0.40,0.38,1.66
28.807,1.75,-0.60,0.20,1.86
28.817,1.94,-0.63,-0.06,2.04
28.827,2.11,-0.53,-0.28,2.19
28.837,2.19,-0.33,-0.45,2.26
28.847,2.20,-0.21,-0.59,2.29
28.857,2.08,-0.15,-0.60,2.17
28.867,1.77,-0.09,-0.49,1.84
28.877,1.34,-0.04,-0.33,1.38
28.887,0.91,0.05,-0.16,0.92
28.897,0.54,0.16,-0.07,0.56
28.907,0.29,0.30,-0.02,0.42
28.917,0.20,0.39,0.02,0.43
28.927,0.24,0.32,0.06,0.41
28.937,0.32,0.12,0.18,0.39
28.947,0.38,-0.10,0.37,0.54
28.957,0.36,-0.24,0.62,0.76
28.967,0.32,-0.27,0.87,0.96
28.977,0.29,-0.12,0.97,1.02
28.987,0.33,0.21,0.92,1.00
28.997,0.44,0.50,0.74,1.00
29.007,0.65,0.66,0.49,1.05
29.017,0.98,0.71,0.28,1.24
29.027,1.33,0.59,0.14,1.46
29.037,1.61,0.32,0.11,1.64
29.047,1.72,-0.10,0.13,1.73
29.057,1.62,-0.56,0.18,1.73
29.067,1.34,-0.91,0.19,1.64
29.077,0.95,-1.05,0.16,1.42
29.087,0.53,-0.97,0.07,1.10
29.097,0.08,-0.75,-0.07,0.75
29.107,-0.71,0.09,-0.57,0.91
29.117,-1.31,0.41,-1.02,1.71
29.127,-1.72,-0.31,-1.13,2.08
29.137,-2.18,-0.51,-0.84,2.39
29.147,-2.60,-0.08,-0.51,2.65
29.157,-2.57,0.17,0.96,2.75
29.167,-2.69,0.47,0.10,2.73
29.177,-3.33,0.61,-1.35,3.64
29.187,-3.17,0.37,-0.91,3.32
29.196,-2.75,0.31,-0.84,2.89
29.207,-2.13,0.07,-0.15,2.14
29.217,-1.73,0.01,0.17,1.74
29.227,-1.48,0.03,0.12,1.48
29.236,-1.43,0.10,0.05,1.43
29.247,-1.45,0.21,-0.09,1.47
29.256,-1.58,0.47,-0.06,1.65
29.267,-1.75,0.70,-0.11,1.88
29.277,-1.70,0.59,-0.55,1.88
29.287,-1.58,0.16,-0.79,1.77
29.296,-1.60,-0.77,-0.98,2.03
29.307,-1.21,-1.20,-1.28,2.13
29.316,-0.67,-1.27,-0.66,1.58
29.327,-0.32,-0.97,-0.26,1.05
29.336,-0.22,-0.47,-0.23,0.57
29.347,0.04,-0.10,-0.29,0.31
29.356,0.35,0.33,-0.30,0.57
29.367,-0.43,1.20,-0.34,1.32
29.376,-0.83,1.39,0.15,1.62
29.387,-3.08,2.80,1.33,4.37
29.396,-2.15,0.87,0.90,2.49
29.407,0.05,-0.83,0.05,0.83
29.416,-0.06,-0.02,0.46,0.47
29.426,-0.86,0.74,0.96,1.49
29.436,-1.16,1.03,0.89,1.79
29.446,-0.72,0.45,0.17,0.87
29.456,-0.44,0.24,0.27,0.57
29.466,-0.44,0.35,0.20,0.60
29.476,-0.56,0.91,0.56,1.21
29.486,-1.26,2.41,1.63,3.18
29.496,-1.77,3.81,1.73,4.55
29.506,-1.19,2.38,-1.05,2.87
29.516,-0.79,0.93,-1.02,1.59
29.526,-0.64,0.94,0.56,1.27
29.536,-0.29,1.36,1.03,1.73
29.546,0.02,1.27,0.57,1.39
29.556,-0.07,0.92,-0.42,1.01
29.569,-0.66,1.58,-0.83,1.91
29.576,-1.04,2.35,-1.47,2.96
29.586,-0.82,2.84,-1.71,3.42
29.596,-0.26,3.31,-1.00,3.47
29.606,1.05,2.99,-0.40,3.19
29.616,1.69,2.40,0.76,3.03
29.626,1.58,2.04,1.05,2.78
29.636,1.65,2.30,0.94,2.99
29.646,1.53,2.37,1.86,3.38
29.656,1.04,1.60,3.16,3.70
29.666,1.27,-0.65,2.39,2.78
29.676,1.33,-2.11,1.90,3.13
29.686,0.79,-1.55,3.17,3.62
29.696,1.13,-0.66,2.69,2.99
29.706,1.27,0.79,1.85,2.38
29.716,1.78,2.09,1.77,3.26
29.726,2.81,1.77,0.34,3.33
29.736,4.20,1.64,-0.87,4.59
29.746,3.30,2.06,-1.05,4.03
29.756,3.42,1.69,0.41,3.84
29.766,3.57,1.40,0.15,3.83
29.776,3.86,0.89,-0.11,3.97
29.786,4.22,0.14,1.45,4.47
29.796,4.24,-0.79,3.11,5.31
29.806,3.85,-0.73,3.62,5.34
29.816,3.01,0.02,2.68,4.03
29.826,1.96,0.77,2.06,2.95
29.836,1.04,1.05,1.07,1.82
29.846,-0.26,0.69,0.64,0.98
29.856,-0.75,-0.55,1.85,2.07
29.866,-0.23,-2.11,2.44,3.24
29.876,0.20,-3.66,1.79,4.08
29.886,0.24,-4.41,1.95,4.82
29.896,0.57,-4.12,2.29,4.75
29.906,1.28,-3.23,2.16,4.09
29.915,1.71,-1.86,2.42,3.50
29.926,1.84,-0.51,2.72,3.33
29.935,1.63,-0.22,2.48,2.98
29.946,1.37,-0.67,2.27,2.74
29.955,1.24,-0.62,3.22,3.51
29.966,1.27,-0.02,4.62,4.79
29.975,1.50,0.47,4.92,5.17
29.986,1.54,1.10,5.25,5.58
29.995,1.48,1.74,5.60,6.05
30.005,1.04,2.12,5.65,6.12
30.015,0.44,1.79,5.07,5.39
30.026,0.31,1.16,4.32,4.48
30.035,0.53,0.87,5.06,5.16
30.045,0.98,0.68,6.31,6.42
30.056,1.88,0.53,6.61,6.89
30.065,2.60,0.80,6.44,6.99
30.075,3.13,1.48,6.11,7.02
30.085,3.44,2.16,6.10,7.32
30.095,3.63,2.33,6.17,7.52
30.106,3.59,2.09,6.31,7.55
30.115,3.81,1.53,6.00,7.27
30.125,4.32,1.29,5.47,7.09
30.135,4.78,1.50,5.55,7.48
30.145,5.44,1.75,5.36,7.84
30.155,5.89,2.14,4.79,7.89
30.165,6.09,2.53,3.49,7.46
30.175,6.27,2.91,2.03,7.21
30.185,6.49,2.94,0.95,7.19
30.195,6.61,2.82,0.86,7.24
30.205,6.83,3.16,0.76,7.57
30.215,7.06,3.51,0.16,7.89
30.225,7.11,3.58,-0.29,7.96
30.235,6.86,3.25,-0.91,7.65
30.245,6.46,2.43,-1.61,7.09
30.255,5.99,1.60,-2.25,6.60
30.265,5.64,1.22,-2.51,6.29
30.275,5.50,1.01,-2.70,6.21
30.285,5.36,0.97,-3.20,6.32
30.295,5.12,1.17,-3.69,6.42
30.305,4.70,1.26,-3.83,6.19
30.315,4.10,1.07,-3.95,5.79
30.325,3.56,0.80,-4.08,5.47
30.335,3.20,0.55,-4.10,5.23
30.345,2.92,0.50,-4.01,4.99
30.355,2.82,0.51,-4.05,4.96
30.365,2.92,0.61,-4.18,5.14
30.375,2.98,0.96,-4.06,5.13
30.385,2.69,1.44,-3.67,4.78
30.395,2.10,1.24,-5.10,5.65
30.405,0.24,0.62,-8.47,8.50
30.415,0.33,1.33,-4.92,5.11
30.425,1.34,1.05,-3.94,4.29
30.435,1.65,0.78,-3.82,4.23
30.445,1.36,0.63,-4.66,4.90
30.455,0.77,0.62,-4.67,4.77
30.465,0.44,0.44,-4.10,4.15
30.475,0.10,0.02,-3.53,3.53
30.485,-0.01,-0.49,-3.07,3.11
30.495,-0.02,-0.93,-2.75,2.90
30.505,-0.13,-1.19,-2.71,2.96
30.515,-0.37,-1.26,-2.68,2.98
30.525,-0.65,-1.33,-2.85,3.22
30.535,-0.76,-1.50,-3.23,3.64
30.545,0.26,-1.40,-3.36,3.65
30.555,2.26,-0.03,-1.85,2.92
30.565,6.29,2.32,-1.88,6.97
30.575,7.91,3.85,3.94,9.64
30.585,2.26,-2.22,-0.47,3.21
30.594,-0.63,-6.68,-1.52,6.88
30.605,-1.28,-4.57,2.22,5.24
30.615,0.50,-1.94,3.50,4.03
30.625,1.89,-1.64,2.99,3.90
30.635,0.76,-2.46,2.17,3.37
30.645,0.03,-1.69,2.46,2.99
30.655,-0.19,-0.34,2.45,2.48
30.665,-0.66,0.58,1.63,1.85
30.674,-1.69,2.14,1.29,3.01
30.685,-2.29,2.39,0.29,3.32
30.695,-2.51,2.64,-0.38,3.66
30.705,-1.66,2.02,-0.26,2.63
30.714,-2.00,0.93,-0.08,2.20
30.725,-1.10,1.04,0.36,1.56
30.734,-0.53,0.80,-0.24,0.99
30.745,-1.11,0.09,-2.07,2.35
30.754,0.37,-0.22,-0.58,0.72
30.764,-0.04,-0.98,0.36,1.04
30.774,-0.67,-1.91,0.46,2.07
30.784,-0.42,-2.14,0.17,2.18
30.794,0.19,-2.10,-1.19,2.42
30.804,0.61,-2.03,-2.74,3.47
30.814,0.75,-1.69,-3.34,3.82
30.824,0.83,-0.97,-3.25,3.49
30.834,0.90,-0.01,-2.88,3.02
30.844,0.82,1.06,-1.98,2.39
30.854,0.39,1.66,-0.02,1.70
30.864,-0.04,1.40,2.07,2.50
30.874,-0.40,0.45,3.35,3.41
30.884,-0.63,-0.47,3.68,3.77
30.894,-0.45,-0.98,3.36,3.53
30.904,-0.17,-1.21,2.54,2.82
30.914,-0.04,-1.12,1.76,2.09
30.924,0.23,-0.83,1.12,1.41
30.934,0.71,-0.38,0.44,0.92
30.944,1.16,0.03,0.16,1.17
30.954,1.15,-0.07,0.22,1.17
30.964,1.00,-0.52,0.30,1.16
30.974,0.92,-0.91,0.42,1.36
30.984,0.82,-1.26,0.44,1.56
30.994,0.86,-1.47,0.26,1.73
31.004,0.89,-1.60,-0.06,1.84
31.014,0.89,-1.56,-0.12,1.80
31.024,0.84,-1.55,0.61,1.87
31.034,-0.06,-2.66,5.41,6.03
31.044,0.10,-2.12,4.48,4.96
31.054,0.34,-1.12,2.53,2.79
31.064,0.62,0.34,0.63,0.94
31.074,0.80,0.96,-0.66,1.41
31.084,1.24,0.38,-0.70,1.48
31.094,0.01,-0.76,-2.46,2.58
31.104,-0.22,-1.16,-2.96,3.19
31.114,0.20,-0.81,-1.88,2.06
31.124,0.44,-0.31,-0.48,0.72
31.134,0.45,-0.42,0.39,0.73
31.144,0.18,-0.81,0.14,0.84
31.154,-0.06,-0.71,0.13,0.72
31.164,-0.17,-0.38,0.43,0.60
31.174,-0.12,-0.16,0.54,0.58
31.184,0.09,-0.17,0.30,0.35
31.194,0.43,-0.15,-0.19,0.49
31.204,0.66,-0.10,-0.36,0.76
31.214,0.61,-0.08,-0.13,0.63
31.224,0.45,-0.01,0.11,0.47
31.233,0.36,-0.00,0.32,0.48
31.244,0.25,-0.12,0.53,0.59
31.254,0.29,-0.14,0.43,0.53
31.264,0.35,-0.01,0.38,0.51
31.274,0.39,0.10,0.30,0.50
31.283,0.49,0.05,0.11,0.50
31.294,0.54,-0.01,0.06,0.54
31.304,0.52,-0.04,0.16,0.54
31.314,0.56,-0.16,0.03,0.58
31.323,0.68,-0.33,-0.04,0.75
31.334,0.70,-0.42,0.03,0.81
31.343,0.72,-0.45,-0.82,1.18
31.353,0.43,-0.67,-0.99,1.27
31.363,-0.63,-0.79,1.76,2.03
31.373,-1.11,-0.08,2.59,2.82
31.383,-0.47,0.13,1.65,1.72
31.393,0.19,-0.14,0.86,0.89
31.404,0.49,-0.05,0.00,0.49
31.413,0.57,-0.03,-0.38,0.69
31.423,0.65,-0.21,-0.65,0.94
31.433,0.74,-0.43,-0.96,1.29
31.443,0.38,-0.47,-0.30,0.68
