time,ax,ay,az,atotal
0.000,0.36,-0.95,0.50,1.13
0.010,0.56,-0.92,0.31,1.12
0.020,0.51,-0.51,0.43,0.84
0.030,0.67,-0.18,0.75,1.02
0.040,1.05,-0.40,0.52,1.24
0.050,1.23,-0.79,0.15,1.47
0.060,1.25,-0.74,-0.08,1.46
0.070,1.27,-0.43,-0.34,1.39
0.080,0.92,-0.25,-0.43,1.05
0.090,0.71,0.45,0.01,0.84
0.100,0.21,1.53,0.08,1.54
0.110,-0.39,0.86,-0.58,1.11
0.120,0.03,-0.07,-0.21,0.22
0.130,0.19,-0.82,-0.15,0.86
0.140,-0.42,-1.32,-0.02,1.38
0.150,-0.59,-1.89,-0.42,2.03
0.160,-0.69,-1.13,-1.55,2.04
0.170,-0.47,0.18,-0.88,1.01
0.180,-0.35,1.67,-0.60,1.81
0.190,-0.50,2.41,-0.45,2.50
0.200,-0.92,1.99,0.20,2.20
0.210,-1.91,0.80,3.83,4.35
0.220,-1.04,-0.78,0.34,1.34
0.230,-0.22,-0.89,0.55,1.07
0.240,0.96,-1.00,0.49,1.47
0.249,0.83,0.02,0.57,1.01
0.260,0.55,0.83,0.72,1.23
0.270,0.47,0.76,1.05,1.38
0.280,0.50,0.39,0.90,1.10
0.290,0.65,0.46,0.75,1.10
0.299,0.86,0.65,0.48,1.17
0.310,0.97,0.62,0.23,1.18
0.320,1.03,0.59,0.13,1.20
0.330,1.06,0.66,0.08,1.25
0.339,0.98,0.59,-0.08,1.14
0.349,0.78,0.40,-0.02,0.88
0.360,0.53,-0.00,0.17,0.56
0.369,0.24,-0.58,0.36,0.72
0.380,0.04,-1.23,0.35,1.28
0.389,0.16,-1.58,0.18,1.60
0.399,0.64,-1.74,-0.03,1.85
0.409,1.05,-1.98,-0.12,2.24
0.419,0.96,-1.97,-0.01,2.19
0.429,0.27,-1.71,0.80,1.91
0.439,-0.79,-1.64,1.79,2.56
0.449,-1.69,-1.75,2.25,3.32
0.459,-2.10,-1.84,2.26,3.59
0.469,-2.07,-1.63,1.89,3.24
0.479,-2.06,-1.02,1.76,2.90
0.489,-2.08,-0.21,1.46,2.55
0.499,-2.05,0.26,1.35,2.47
0.509,-1.96,0.21,1.49,2.47
0.519,-1.78,0.14,1.31,2.22
0.529,-1.44,0.15,0.90,1.71
0.539,-1.27,0.28,0.56,1.42
0.549,-1.23,0.28,0.44,1.34
0.559,-1.16,0.23,0.48,1.28
0.569,-1.10,0.29,0.48,1.24
0.579,-1.36,0.45,0.62,1.56
0.589,-1.77,0.40,1.18,2.17
0.599,-2.00,0.12,1.33,2.40
0.609,-2.29,0.37,1.56,2.80
0.619,-1.93,0.28,1.55,2.49
0.629,-1.08,0.43,0.67,1.34
0.639,-0.59,0.58,0.23,0.86
0.649,-0.48,-0.06,0.28,0.56
0.659,-0.42,-0.73,0.53,0.99
0.669,-0.29,-1.16,0.96,1.54
0.679,-0.25,-1.51,1.10,1.88
0.689,-0.39,-1.92,1.11,2.25
0.699,-0.39,-2.22,1.42,2.66
0.709,-0.44,-2.35,1.68,2.93
0.719,-0.60,-2.46,1.56,2.98
0.729,-0.68,-2.44,0.93,2.70
0.739,-0.45,-2.17,-1.13,2.49
0.749,0.22,-1.80,-1.86,2.59
0.759,0.43,-1.36,-1.09,1.80
0.769,0.19,-1.10,-0.53,1.23
0.779,0.29,-1.47,-0.05,1.50
0.789,0.58,-1.93,0.16,2.02
0.799,0.66,-1.94,-0.19,2.06
0.809,0.70,-1.60,-0.17,1.76
0.819,0.29,-0.91,-0.18,0.97
0.829,0.29,-0.19,-0.16,0.38
0.839,0.42,0.71,-0.60,1.02
0.849,0.36,0.78,-1.31,1.57
0.859,1.16,0.23,-1.35,1.79
0.869,2.40,0.98,-0.96,2.77
0.879,1.25,1.16,-1.80,2.48
0.889,0.30,0.11,-1.87,1.90
0.899,0.40,-0.52,-0.45,0.79
0.909,-0.05,-0.37,0.90,0.97
0.919,-0.25,0.53,2.47,2.54
0.929,0.01,0.87,2.53,2.68
0.938,-0.24,0.13,1.25,1.28
0.948,-1.03,-0.93,1.42,1.98
0.959,-0.23,-1.75,0.35,1.80
0.968,-0.56,-1.70,2.25,2.87
0.979,-1.80,1.79,2.74,3.74
0.989,-2.49,1.78,5.30,6.12
0.998,-1.78,0.76,3.04,3.61
1.008,-1.28,0.07,2.46,2.77
1.018,-1.68,0.28,5.01,5.29
1.028,-1.92,1.27,7.07,7.44
1.038,-2.47,2.25,8.94,9.55
1.048,-3.08,3.01,9.85,10.75
1.059,-3.96,2.89,9.63,10.80
1.068,-4.74,2.83,8.31,9.98
1.079,-5.07,3.85,5.94,8.71
1.088,-5.46,5.09,3.72,8.34
1.098,-6.06,6.36,2.09,9.03
1.108,-6.45,7.67,0.76,10.05
1.118,-6.72,8.42,-0.10,10.78
1.128,-7.04,8.77,0.19,11.25
1.138,-6.81,8.88,0.63,11.20
1.148,-5.42,9.23,0.77,10.73
1.158,-3.50,8.97,-0.24,9.63
1.168,-1.74,8.41,-2.14,8.85
1.178,0.28,8.77,-3.43,9.42
1.188,2.27,9.46,-3.56,10.36
1.198,3.83,9.79,-3.51,11.08
1.208,5.65,9.91,-4.59,12.30
1.218,8.26,9.58,-4.32,13.37
1.228,10.54,8.16,-4.12,13.95
1.238,11.94,6.39,-5.11,14.47
1.248,12.09,4.83,-5.39,14.09
1.258,11.53,3.67,-5.20,13.18
1.268,10.82,2.65,-4.50,12.02
1.278,10.31,1.67,-3.38,10.98
1.288,10.34,0.44,-3.28,10.86
1.298,10.56,-0.63,-3.95,11.30
1.308,11.01,-0.95,-5.02,12.14
1.318,11.46,-0.96,-4.83,12.47
1.328,12.07,-1.15,-4.59,12.97
1.338,12.21,-1.96,-4.01,13.00
1.348,11.94,-2.85,-2.64,12.56
1.358,11.41,-3.68,-1.08,12.04
1.368,10.45,-4.45,0.11,11.36
1.378,9.34,-5.00,0.65,10.62
1.388,8.30,-5.39,0.67,9.92
1.398,7.42,-5.58,1.14,9.35
1.408,6.67,-5.44,1.89,8.81
1.418,6.11,-5.35,2.08,8.38
1.428,5.58,-5.50,2.10,8.11
1.438,5.08,-5.66,2.47,8.00
1.448,4.49,-5.89,2.61,7.85
1.458,3.98,-6.07,2.62,7.72
1.468,3.43,-6.38,2.89,7.80
1.478,2.84,-6.65,3.23,7.92
1.488,2.20,-6.98,3.27,8.02
1.498,1.90,-6.83,3.61,7.95
1.508,2.06,-5.59,4.63,7.54
1.518,2.55,-4.74,4.42,6.97
1.528,2.97,-4.65,2.46,6.05
1.538,3.01,-2.46,3.33,5.12
1.548,3.13,-0.60,3.08,4.43
1.557,3.00,0.18,1.92,3.57
1.568,2.45,0.59,2.01,3.22
1.578,2.19,0.68,1.78,2.90
1.588,1.82,0.45,2.03,2.77
1.598,1.43,0.08,2.37,2.77
1.608,1.01,0.03,1.76,2.03
1.618,0.77,0.54,0.83,1.25
1.628,0.45,0.89,0.09,1.00
1.637,-0.10,1.53,0.64,1.66
1.648,-0.48,2.34,0.40,2.42
1.658,-0.60,2.35,-0.87,2.57
1.668,-0.46,1.29,-0.48,1.46
1.678,-0.15,-0.25,0.59,0.65
1.687,0.34,-1.14,0.79,1.43
1.697,0.94,-1.36,0.23,1.67
1.708,1.09,-1.72,0.06,2.03
1.717,1.22,-1.78,0.19,2.16
1.727,1.68,-1.73,0.10,2.42
1.737,1.97,-1.53,-0.22,2.50
1.747,2.09,-1.35,-0.24,2.50
1.758,2.11,-1.50,-0.04,2.58
1.767,2.09,-1.92,-0.66,2.91
1.777,1.77,-2.25,-0.62,2.93
1.787,1.78,-2.34,-0.46,2.98
1.797,1.88,-2.54,-0.73,3.24
1.807,1.58,-3.00,-0.28,3.40
1.817,0.89,-3.72,-0.74,3.89
1.827,0.21,-3.63,-1.86,4.09
1.837,-0.20,-2.64,-2.10,3.38
1.847,-0.46,-1.19,-1.82,2.22
1.857,-1.48,0.57,-1.61,2.26
1.867,-3.24,2.92,-1.60,4.64
1.877,-5.72,6.59,-1.73,8.90
1.887,-7.96,10.48,-3.01,13.50
1.897,-8.98,12.15,-3.02,15.40
1.907,-7.83,10.91,-1.23,13.49
1.917,-5.68,7.13,-0.70,9.14
1.927,-2.92,3.48,-0.33,4.56
1.937,-0.85,0.91,0.42,1.32
1.947,0.39,-0.81,0.54,1.05
1.957,0.31,-1.64,-0.01,1.67
1.967,-0.40,-2.01,-1.42,2.49
1.977,-1.57,-2.03,-2.86,3.84
1.987,-2.70,-0.82,-2.74,3.93
1.997,-3.22,1.40,-2.10,4.09
2.007,-3.52,2.87,-2.29,5.09
2.017,-3.43,2.92,-1.80,4.85
2.027,-2.61,0.83,-2.46,3.68
2.037,-1.32,-1.70,-1.73,2.76
2.047,1.25,-3.05,-0.39,3.32
2.057,3.42,-3.90,-0.10,5.18
2.067,4.85,-4.10,-1.39,6.50
2.077,5.62,-3.61,-2.34,7.08
2.087,5.11,-2.57,-1.87,6.02
2.097,5.11,-0.31,0.98,5.21
2.107,4.61,1.39,2.85,5.60
2.117,2.86,1.24,1.94,3.67
2.127,0.97,0.43,1.57,1.89
2.137,-0.52,-0.51,1.09,1.31
2.147,-1.56,-1.44,0.43,2.17
2.157,-1.93,-1.80,-0.01,2.64
2.167,-1.60,-1.66,-0.42,2.34
2.177,-1.06,-1.37,-0.55,1.81
2.187,-0.28,-0.60,-0.77,1.01
2.197,0.39,0.26,-1.08,1.17
2.207,0.49,0.95,-1.71,2.01
2.217,-0.08,1.36,-2.03,2.45
2.227,-0.89,1.74,-2.03,2.82
2.237,-1.59,2.23,-1.74,3.24
2.247,-1.64,2.74,-1.55,3.55
2.257,-0.84,2.92,-1.71,3.48
2.267,-0.15,2.78,-1.84,3.34
2.277,0.23,2.54,-1.50,2.96
2.286,0.66,2.62,-1.26,2.98
2.296,1.29,2.52,-0.63,2.90
2.307,1.64,1.93,0.12,2.53
2.317,1.19,1.42,1.07,2.14
2.327,0.31,0.85,1.96,2.16
2.337,-0.87,-0.08,2.37,2.53
2.347,-1.46,-0.38,1.17,1.91
2.356,-1.70,-0.57,0.48,1.85
2.366,-1.97,-0.25,-0.47,2.04
2.376,-1.94,0.52,-0.95,2.22
2.387,-1.89,1.99,-0.89,2.89
2.396,-1.67,3.81,1.17,4.32
2.406,-1.44,5.82,2.41,6.46
2.416,-1.32,7.88,2.88,8.49
2.426,-1.27,10.27,2.19,10.57
2.436,-1.59,13.05,1.48,13.23
2.447,-1.92,14.61,1.48,14.81
2.457,-2.00,13.54,1.61,13.78
2.466,-2.27,7.47,1.75,8.00
2.476,-1.89,-0.36,2.16,2.89
2.486,-1.57,-2.88,2.68,4.24
2.496,-0.98,-3.02,2.51,4.04
2.506,-0.43,-3.07,2.29,3.85
2.516,0.15,-3.65,1.49,3.95
2.526,0.62,-4.20,0.52,4.28
2.536,1.17,-4.32,-0.23,4.48
2.546,1.71,-4.21,-1.11,4.68
2.556,1.75,-3.52,-1.71,4.29
2.566,1.50,-2.78,-1.92,3.70
2.576,1.65,-2.49,-1.46,3.33
2.586,0.89,-2.41,-0.95,2.74
2.596,-0.15,-2.74,-0.76,2.85
2.606,-0.58,-2.86,-0.68,2.99
2.616,-0.62,-2.54,-0.32,2.64
2.626,-0.54,-2.05,0.14,2.13
2.636,-0.39,-1.57,0.64,1.74
2.646,-0.33,-1.17,1.21,1.71
2.656,-0.27,-0.89,1.60,1.85
2.666,-0.39,-0.54,1.84,1.96
2.676,-0.69,-0.65,1.52,1.79
2.686,-0.74,-0.99,1.08,1.64
2.696,-0.40,-1.18,0.91,1.54
2.706,-0.08,-1.34,0.83,1.58
2.716,-0.08,-1.51,0.44,1.58
2.726,-0.28,-1.61,0.14,1.64
2.736,-0.55,-1.72,0.14,1.81
2.746,-0.84,-1.90,0.08,2.08
2.756,-0.90,-2.00,0.06,2.20
2.766,-0.70,-1.77,0.16,1.91
2.776,-0.66,-1.54,0.24,1.69
2.786,-0.82,-1.62,0.25,1.83
2.796,-0.99,-1.76,0.33,2.05
2.806,-0.97,-1.88,0.44,2.16
2.816,-0.82,-1.77,0.66,2.06
2.826,-0.82,-1.36,0.97,1.86
2.836,-0.85,-1.14,0.96,1.71
2.846,-0.80,-1.09,0.73,1.54
2.856,-0.58,-1.00,0.62,1.31
2.866,-0.04,-0.69,0.79,1.05
2.876,0.37,-0.43,0.89,1.06
2.886,0.47,-0.44,0.80,1.02
2.896,0.37,-0.44,0.67,0.89
2.906,0.36,-0.45,0.33,0.66
2.916,0.27,-0.52,-0.14,0.60
2.926,-0.02,-0.69,-0.34,0.77
2.935,-0.14,-0.99,-0.45,1.10
2.946,-0.19,-1.26,-0.33,1.31
2.956,-0.27,-1.44,-0.04,1.47
2.966,-0.34,-1.54,0.08,1.58
2.976,-0.38,-1.57,0.12,1.62
2.986,-0.40,-1.43,0.17,1.50
2.996,-0.15,-1.20,0.16,1.22
3.005,0.28,-0.95,0.27,1.03
3.015,0.48,-0.77,0.52,1.04
3.026,0.36,-0.62,0.60,0.93
3.036,0.07,-0.47,0.50,0.69
3.046,-0.18,-0.31,0.34,0.50
3.055,-0.27,0.04,0.23,0.36
3.066,-0.18,-0.07,0.17,0.26
3.075,0.09,-0.17,0.14,0.23
3.085,0.38,-0.20,0.10,0.44
3.095,0.56,-0.33,0.03,0.65
3.105,0.69,-0.35,-0.01,0.77
3.115,0.73,-0.26,-0.00,0.78
3.125,0.66,-0.17,0.00,0.68
3.135,0.59,-0.19,-0.01,0.62
3.145,0.50,-0.39,0.06,0.64
3.155,0.48,-0.48,0.13,0.69
3.165,0.66,-0.72,0.14,0.98
3.175,0.78,-0.85,-0.07,1.16
3.185,0.95,-0.81,-0.21,1.26
3.195,0.98,-0.73,-0.30,1.26
3.205,0.94,-0.60,-0.33,1.16
3.215,0.94,-0.86,-0.44,1.34
3.225,0.95,-0.99,-0.38,1.43
3.235,1.13,-0.92,-0.25,1.48
3.245,1.29,-0.72,-0.44,1.54
3.255,1.21,-0.46,-0.60,1.43
3.265,1.07,-0.16,-0.81,1.35
3.275,0.77,0.06,-1.19,1.42
3.285,0.23,0.21,-1.53,1.56
3.295,-0.31,0.03,-1.72,1.74
3.305,-0.72,-0.25,-1.46,1.65
3.315,-1.11,-0.37,-0.96,1.51
3.325,-1.29,-0.31,-0.52,1.43
3.335,-1.18,0.03,-0.06,1.18
3.345,-1.07,0.36,0.32,1.17
3.355,-0.83,0.02,0.10,0.84
3.365,-0.62,-0.76,-0.24,1.01
3.375,-0.87,0.26,1.04,1.38
3.385,-1.05,1.01,1.65,2.19
3.395,-1.22,1.64,1.53,2.55
3.405,-1.27,2.09,1.06,2.66
3.415,-1.24,2.00,1.00,2.56
3.425,-0.86,1.50,0.15,1.73
3.435,-0.91,1.22,0.20,1.54
3.445,-1.34,0.98,0.72,1.80
3.455,-1.63,0.15,0.94,1.89
3.465,-1.68,-0.83,0.92,2.09
3.475,-1.52,-1.62,0.68,2.32
3.485,-1.39,-2.16,0.83,2.70
3.495,-1.38,-2.28,0.81,2.79
3.505,-1.19,-2.17,0.79,2.60
3.515,-0.91,-2.02,0.59,2.29
3.525,-0.79,-1.74,0.22,1.92
3.535,-0.87,-1.48,-0.13,1.72
3.545,-0.70,-1.19,-0.42,1.45
3.555,-0.18,-1.03,-0.50,1.16
3.565,0.67,-1.28,0.03,1.45
3.575,1.77,-1.79,0.49,2.56
3.585,2.91,-2.19,-0.04,3.64
3.594,3.60,-2.39,-1.54,4.59
3.605,3.76,-2.95,-2.34,5.32
3.615,3.45,-3.12,-2.04,5.08
3.625,3.58,-2.79,-1.93,4.93
3.635,2.90,-2.02,-1.71,3.93
3.645,3.56,-1.45,-1.39,4.09
3.655,4.09,-1.09,-2.80,5.07
3.664,3.67,-0.84,-3.91,5.43
3.675,3.23,0.61,-5.28,6.22
3.685,3.12,4.07,-7.54,9.12
3.695,3.11,13.16,-7.09,15.27
3.705,0.34,18.00,0.92,18.03
3.715,-3.11,14.12,3.17,14.80
3.725,-4.90,4.92,3.81,7.92
3.735,-3.16,-1.15,3.55,4.89
3.745,-0.82,-2.62,2.56,3.75
3.754,0.59,-3.36,1.41,3.70
3.765,1.00,-3.76,0.20,3.89
3.774,0.84,-3.20,-0.87,3.42
3.784,0.49,-1.67,-1.32,2.19
3.794,0.33,-0.43,-1.41,1.51
3.804,0.34,0.01,-1.52,1.56
3.814,0.32,-0.07,-1.65,1.68
3.824,0.26,-0.30,-1.57,1.62
3.834,0.20,-0.48,-1.17,1.28
3.844,0.20,-0.69,-0.75,1.03
3.854,0.25,-0.92,-0.39,1.03
3.864,0.33,-1.09,-0.20,1.16
3.874,0.34,-1.25,-0.33,1.33
3.884,0.28,-1.38,-0.72,1.58
3.894,0.16,-1.51,-1.16,1.92
3.904,-0.02,-1.61,-1.48,2.19
3.914,-0.22,-1.64,-1.61,2.31
3.924,-0.37,-1.50,-1.56,2.20
3.934,-0.42,-1.09,-1.47,1.88
3.944,-0.32,-0.35,-1.46,1.54
3.954,-0.03,0.60,-1.54,1.65
3.964,0.39,1.69,-1.57,2.33
3.974,0.88,2.86,-1.27,3.25
3.984,1.58,4.22,-0.48,4.53
3.994,2.55,5.63,0.50,6.20
4.004,3.16,6.57,1.13,7.38
4.014,2.96,7.25,0.86,7.88
4.024,1.48,7.79,-0.33,7.93
4.034,-0.56,7.79,-1.72,7.99
4.044,-2.18,7.04,-2.56,7.80
4.054,-3.21,5.91,-2.71,7.26
4.064,-3.38,4.77,-2.25,6.27
4.074,-2.16,3.21,-1.53,4.16
4.084,-0.17,2.17,-0.28,2.19
4.094,1.23,1.89,0.69,2.36
4.104,2.26,1.88,0.41,2.96
4.114,2.72,1.77,-0.36,3.26
4.124,2.29,0.97,-0.97,2.67
4.134,1.21,-0.05,-0.74,1.42
4.144,0.21,-0.43,0.10,0.49
4.154,-0.12,-1.06,0.69,1.27
4.164,-0.06,-2.14,1.00,2.37
4.174,-0.06,-3.11,0.99,3.27
4.184,-0.30,-3.86,0.70,3.94
4.194,-0.74,-4.66,0.41,4.73
4.204,-1.29,-5.24,0.01,5.39
4.214,-2.02,-5.77,-0.43,6.13
4.224,-2.77,-6.29,-0.62,6.90
4.234,-3.44,-6.55,-0.75,7.44
4.244,-4.05,-6.41,-0.82,7.63
4.254,-4.43,-5.59,-0.77,7.17
4.264,-4.32,-3.97,-0.75,5.91
4.274,-3.82,-2.05,-0.65,4.38
4.284,-3.13,-0.44,-0.25,3.17
4.294,-2.50,0.95,0.36,2.70
4.304,-1.84,2.31,0.85,3.07
4.313,-0.94,3.55,0.93,3.79
4.324,0.27,4.35,0.60,4.40
4.334,1.43,4.34,0.47,4.59
4.345,2.08,3.36,0.79,4.03
4.354,2.13,1.91,1.15,3.08
4.364,1.93,0.51,1.13,2.29
4.374,1.75,-0.58,0.69,1.97
4.383,1.56,-1.23,-0.02,1.99
4.393,1.16,-1.62,-0.72,2.12
4.403,0.59,-1.94,-1.21,2.36
4.413,-0.03,-2.40,-1.61,2.89
4.423,-0.50,-2.89,-2.00,3.55
4.433,-0.80,-3.26,-2.16,3.99
4.443,-1.04,-3.50,-1.96,4.15
4.453,-1.25,-3.37,-1.65,3.95
4.463,-1.49,-2.87,-0.97,3.38
4.473,-1.70,-2.13,-0.20,2.74
4.483,-1.82,-1.42,0.48,2.36
4.493,-1.76,-0.83,0.91,2.14
4.503,-1.45,-0.42,0.96,1.79
4.513,-0.99,-0.33,0.62,1.21
4.523,-0.50,-0.67,-0.05,0.84
4.533,-0.17,-1.39,-0.90,1.66
4.543,0.03,-2.02,-1.72,2.65
4.553,0.17,-2.24,-2.16,3.12
4.563,0.27,-2.25,-2.20,3.16
4.573,0.30,-2.33,-2.25,3.26
4.583,0.30,-2.43,-2.31,3.36
4.593,0.25,-2.34,-2.31,3.30
4.603,0.22,-2.04,-2.36,3.13
4.613,0.22,-1.48,-2.43,2.85
4.623,0.28,-0.57,-2.47,2.55
4.633,0.40,0.66,-2.33,2.46
4.643,0.45,2.08,-1.84,2.82
4.653,0.21,3.71,-1.16,3.89
4.663,-0.51,5.67,-0.03,5.70
4.673,-1.27,8.14,1.78,8.43
4.683,-1.52,10.78,2.64,11.20
4.693,-0.94,12.42,2.59,12.72
4.703,0.61,10.24,3.17,10.73
4.713,1.47,6.59,3.15,7.45
4.723,0.79,4.74,1.88,5.16
4.733,-0.90,3.92,0.32,4.03
4.743,-2.95,4.09,-0.89,5.12
4.753,-4.57,4.65,-1.74,6.74
4.763,-5.24,4.85,-2.19,7.47
4.773,-4.80,4.02,-2.11,6.61
4.783,-3.82,2.78,-1.45,4.94
4.793,-2.98,1.47,-0.85,3.43
4.803,-2.42,0.16,-0.68,2.52
4.813,-2.02,-0.64,-0.82,2.28
4.823,-1.63,-1.42,-0.81,2.31
4.833,-1.16,-2.63,-0.54,2.92
4.843,-0.54,-3.96,-0.11,4.00
4.853,0.21,-5.18,0.37,5.20
4.863,1.00,-6.18,0.68,6.29
4.873,1.60,-7.10,0.94,7.34
4.883,1.85,-8.12,1.22,8.41
4.893,1.98,-8.99,1.33,9.30
4.903,1.98,-9.27,1.44,9.58
4.913,1.93,-8.91,1.28,9.21
4.923,1.90,-7.98,0.77,8.24
4.933,1.69,-6.27,0.23,6.50
4.943,1.31,-3.91,-0.45,4.15
4.953,0.90,-1.48,-1.44,2.25
4.963,0.57,1.49,-2.12,2.65
4.973,0.61,5.23,-2.53,5.85
4.983,1.17,8.74,-3.15,9.37
4.993,1.98,11.20,-3.52,11.91
5.004,2.40,11.03,-2.01,11.47
5.013,2.19,5.96,1.25,6.47
5.023,1.00,2.47,4.29,5.06
5.033,-0.19,1.22,5.17,5.31
5.043,-0.75,0.66,4.36,4.48
5.053,-0.84,0.17,2.29,2.44
5.062,-0.63,-0.36,0.27,0.78
5.073,-0.09,-0.61,-1.09,1.25
5.082,0.47,-0.43,-2.43,2.52
5.093,0.57,-0.04,-3.10,3.15
5.102,0.36,-0.12,-2.38,2.41
5.113,0.39,-0.56,-1.13,1.32
5.122,0.50,-1.02,0.20,1.15
5.132,0.42,-1.61,1.36,2.15
5.143,0.29,-2.23,1.99,3.00
5.152,0.17,-2.60,1.96,3.26
5.162,0.09,-2.83,1.27,3.11
5.172,0.18,-3.32,0.29,3.34
5.182,0.34,-3.89,-0.69,3.97
5.192,0.49,-4.37,-1.48,4.64
5.202,0.66,-4.71,-2.09,5.19
5.212,0.79,-5.01,-2.52,5.66
5.222,0.86,-5.15,-2.86,5.95
5.232,0.90,-4.95,-3.22,5.97
5.242,0.96,-4.42,-3.81,5.92
5.252,1.11,-3.60,-3.99,5.49
5.262,1.65,-2.26,-2.91,4.04
5.272,2.86,0.13,-0.74,2.96
5.282,4.03,4.34,2.40,6.39
5.292,3.84,9.65,3.46,10.95
5.302,2.17,12.98,1.35,13.23
5.313,-1.14,12.79,2.39,13.06
5.323,-2.72,12.84,2.91,13.45
5.332,-5.21,10.96,2.84,12.46
5.342,-6.39,7.66,3.07,10.44
5.352,-3.76,4.24,2.28,6.11
5.362,-0.79,2.70,1.60,3.24
5.372,0.85,1.31,0.12,1.57
5.382,1.88,-0.64,-1.84,2.71
5.392,2.62,-2.65,-3.29,4.97
5.402,3.04,-4.28,-3.30,6.20
5.412,2.65,-5.09,-1.78,6.01
5.422,1.54,-4.90,-0.24,5.14
5.432,0.32,-4.99,0.59,5.03
5.442,-0.62,-5.30,0.81,5.40
5.452,-1.35,-5.62,0.72,5.82
5.462,-1.90,-5.82,0.64,6.16
5.472,-2.43,-5.72,0.54,6.24
5.482,-3.18,-5.29,0.33,6.18
5.492,-4.23,-4.47,0.14,6.16
5.502,-5.29,-3.36,-0.06,6.26
5.512,-5.80,-2.20,-0.30,6.21
5.522,-5.89,-1.30,-0.48,6.05
5.532,-5.72,-0.80,-0.31,5.79
5.542,-5.03,-0.73,0.35,5.10
5.552,-3.49,-0.84,1.16,3.77
5.562,-1.75,-0.34,1.52,2.34
5.572,-0.33,0.70,0.77,1.09
5.582,0.72,1.53,-0.61,1.79
5.592,1.55,2.19,-1.62,3.13
5.602,2.26,2.60,-1.75,3.86
5.612,2.74,2.57,-0.92,3.86
5.622,2.84,1.81,0.36,3.39
5.632,2.57,0.47,1.15,2.86
5.642,2.17,-0.62,1.22,2.57
5.651,1.56,-1.19,0.95,2.18
5.662,0.80,-1.40,0.51,1.70
5.671,0.02,-1.52,0.03,1.52
5.682,-0.70,-1.60,-0.47,1.81
5.692,-1.35,-1.63,-0.93,2.31
5.702,-2.05,-1.55,-1.23,2.85
5.712,-2.70,-1.48,-1.30,3.34
5.722,-3.13,-1.48,-0.84,3.56
5.732,-3.14,-1.46,-0.14,3.46
5.741,-2.71,-1.49,0.50,3.13
5.751,-2.07,-1.38,0.91,2.66
5.762,-1.49,-1.20,0.79,2.07
5.771,-0.92,-1.12,0.13,1.45
5.782,-0.37,-1.11,-0.75,1.40
5.791,0.21,-1.20,-1.63,2.03
5.801,0.69,-1.40,-2.31,2.79
5.811,1.04,-1.55,-2.70,3.28
5.821,1.10,-1.51,-2.57,3.18
5.831,0.76,-1.48,-2.11,2.68
5.841,0.38,-1.53,-1.84,2.42
5.851,0.28,-1.73,-1.78,2.50
5.861,0.42,-1.97,-1.71,2.64
5.871,0.71,-2.09,-1.57,2.71
5.881,0.95,-1.99,-1.37,2.59
5.891,1.11,-1.44,-1.20,2.18
5.901,1.18,-0.50,-1.14,1.71
5.911,1.09,0.74,-1.20,1.78
5.921,0.71,2.36,-1.32,2.79
5.931,0.11,4.34,-1.64,4.64
5.941,-0.50,6.85,-1.31,6.99
5.951,-0.45,9.84,0.36,9.86
5.961,1.12,12.01,1.71,12.18
5.971,3.85,10.49,2.40,11.43
5.981,4.90,6.38,2.60,8.45
5.991,3.94,3.54,2.12,5.71
6.001,2.06,2.82,0.93,3.61
6.011,-0.35,3.61,-0.27,3.64
6.021,-2.56,4.93,-1.22,5.69
6.031,-4.27,6.44,-1.88,7.95
6.041,-5.07,7.89,-2.01,9.59
6.051,-5.11,8.17,-0.83,9.68
6.061,-5.05,6.04,0.72,7.90
6.071,-4.26,3.91,0.29,5.79
6.081,-3.26,2.57,-0.20,4.15
6.091,-2.39,1.49,-0.32,2.84
6.101,-1.82,0.52,-0.26,1.91
6.111,-1.43,-0.65,-0.26,1.59
6.121,-0.92,-1.90,-0.30,2.13
6.131,-0.23,-3.09,-0.29,3.11
6.141,0.54,-4.22,-0.23,4.26
6.151,1.18,-5.27,-0.24,5.40
6.161,1.66,-6.37,-0.20,6.58
6.171,1.96,-7.42,-0.39,7.68
6.181,2.12,-8.34,-1.00,8.66
6.191,2.14,-9.15,-1.83,9.58
6.201,2.06,-9.79,-2.46,10.31
6.211,1.99,-10.13,-2.69,10.67
6.221,1.89,-9.59,-2.71,10.15
6.231,1.74,-7.84,-2.73,8.48
6.241,1.80,-5.82,-3.10,6.84
6.251,1.90,-3.48,-2.98,4.96
6.261,2.10,-0.89,-2.34,3.27
6.271,2.17,1.45,-1.53,3.02
6.281,1.89,4.25,-0.86,4.73
6.291,0.90,7.84,-0.59,7.91
6.301,-0.30,11.90,0.21,11.91
6.311,-1.67,13.63,2.67,13.99
6.321,-2.92,10.64,5.01,12.12
6.331,-2.26,4.45,5.33,7.30
6.341,-0.69,1.02,3.90,4.09
6.351,0.26,-0.44,2.99,3.04
6.361,0.25,-1.09,2.07,2.36
6.371,-0.23,-1.24,0.79,1.49
6.380,-0.48,-1.21,-0.18,1.31
6.391,-0.54,-1.26,-0.59,1.49
6.401,-0.60,-1.48,-1.30,2.06
6.411,-0.71,-2.28,-2.08,3.17
6.421,-0.76,-3.09,-1.95,3.74
6.431,-0.61,-2.80,-1.14,3.08
6.441,-0.08,-2.28,-0.71,2.39
6.450,0.50,-2.33,-0.17,2.39
6.461,0.76,-2.41,0.56,2.59
6.470,0.80,-2.53,1.18,2.91
6.481,0.75,-2.60,1.74,3.22
6.490,0.61,-2.54,1.86,3.20
6.501,0.51,-2.47,1.34,2.86
6.510,0.52,-2.64,0.45,2.73
6.520,0.58,-3.11,-0.54,3.21
6.530,0.57,-3.79,-1.51,4.12
6.540,0.45,-4.25,-2.46,4.93
6.550,0.25,-4.38,-3.29,5.48
6.560,0.06,-4.08,-3.91,5.65
6.570,-0.02,-3.46,-4.29,5.51
6.580,0.06,-2.53,-4.57,5.23
6.590,0.45,-1.09,-4.42,4.58
6.600,1.47,1.10,-3.02,3.54
6.610,3.03,3.65,-0.81,4.81
6.620,3.51,7.12,1.89,8.16
6.630,1.96,11.37,2.24,11.76
6.640,-0.93,13.28,1.38,13.39
6.651,-2.58,13.45,1.29,13.76
6.660,-3.28,13.89,1.36,14.34
6.671,-5.04,12.12,1.86,13.26
6.680,-4.74,8.26,0.90,9.57
6.690,-1.76,4.44,0.77,4.84
6.700,0.58,3.03,0.89,3.21
6.710,1.48,1.42,-0.02,2.05
6.720,2.10,-0.32,-1.68,2.70
6.730,2.72,-2.52,-3.02,4.78
6.740,2.67,-4.76,-2.50,6.01
6.750,2.16,-5.99,-0.95,6.44
6.760,1.12,-5.82,0.30,5.94
6.770,-0.45,-5.35,0.96,5.46
6.780,-1.48,-5.49,1.13,5.79
6.790,-2.07,-5.63,1.15,6.11
6.800,-2.40,-5.67,1.10,6.26
6.810,-2.66,-5.58,1.06,6.27
6.820,-3.13,-5.46,1.08,6.39
6.830,-3.85,-5.10,1.12,6.49
6.840,-4.71,-4.35,1.07,6.50
6.850,-5.48,-3.31,0.64,6.43
6.860,-5.87,-2.21,-0.06,6.27
6.870,-5.79,-1.36,-0.61,5.98
6.880,-5.07,-0.74,-0.61,5.16
6.890,-3.65,-0.50,0.06,3.69
6.900,-2.14,0.11,0.63,2.24
6.910,-0.80,1.20,0.59,1.56
6.920,0.43,2.22,-0.13,2.26
6.930,1.58,3.00,-0.90,3.51
6.940,2.56,3.43,-1.06,4.41
6.950,3.32,3.16,-0.27,4.59
6.960,3.64,2.02,0.97,4.27
6.970,3.35,0.44,1.68,3.77
6.980,2.66,-0.98,1.28,3.11
6.990,1.93,-1.74,0.51,2.65
7.000,1.21,-1.99,-0.06,2.33
7.010,0.42,-2.03,-0.54,2.14
7.019,-0.42,-2.05,-1.05,2.34
7.030,-1.19,-1.99,-1.47,2.74
7.039,-1.86,-1.77,-1.69,3.07
7.050,-2.44,-1.42,-1.74,3.32
7.060,-2.84,-1.10,-1.36,3.33
7.069,-2.90,-1.02,-0.47,3.10
7.080,-2.58,-1.20,0.52,2.89
7.089,-1.95,-1.41,1.25,2.72
7.100,-1.12,-1.60,1.37,2.38
7.109,-0.32,-1.94,0.75,2.10
7.119,0.33,-2.34,-0.26,2.38
7.129,0.93,-2.57,-1.37,3.06
7.139,1.36,-2.51,-2.28,3.66
7.149,1.53,-2.31,-2.85,3.98
7.160,1.48,-2.15,-3.15,4.09
7.169,1.35,-2.04,-3.29,4.10
7.179,1.19,-1.91,-3.25,3.95
7.189,1.05,-1.62,-3.14,3.68
7.199,0.92,-1.08,-2.97,3.29
7.209,0.82,-0.21,-2.76,2.88
7.219,0.75,1.03,-2.43,2.75
7.229,0.70,2.65,-1.96,3.37
7.239,0.49,4.63,-1.27,4.83
7.249,-0.21,7.06,-0.60,7.09
7.259,-1.36,9.91,0.39,10.01
7.269,-2.66,12.89,2.74,13.44
7.280,-3.08,14.85,4.23,15.74
7.290,-0.97,13.03,4.53,13.83
7.299,2.01,8.19,3.85,9.27
7.309,3.19,4.77,2.10,6.11
7.319,2.40,2.75,0.29,3.66
7.329,0.14,2.26,-1.13,2.53
7.339,-2.32,2.86,-2.33,4.36
7.349,-4.15,3.53,-3.36,6.40
7.359,-4.96,4.34,-3.85,7.63
7.369,-4.69,4.41,-2.14,6.79
7.379,-3.15,3.16,-0.72,4.52
7.389,-1.43,1.57,-1.13,2.41
7.399,-0.48,0.19,-1.18,1.29
7.409,-0.04,-1.11,-1.00,1.50
7.419,0.10,-2.18,-0.69,2.29
7.429,0.20,-3.11,-0.38,3.14
7.439,0.42,-4.00,-0.21,4.03
7.449,0.73,-4.87,-0.03,4.93
7.459,1.02,-5.85,0.24,5.95
7.469,1.13,-6.94,0.59,7.06
7.479,1.16,-8.06,0.81,8.18
7.489,1.03,-9.22,0.86,9.32
7.499,0.67,-10.04,0.97,10.11
7.509,0.20,-9.74,1.06,9.80
7.519,-0.09,-8.37,0.70,8.41
7.529,-0.27,-6.14,-0.20,6.15
7.539,-0.38,-3.80,-1.15,3.99
7.549,-0.24,-1.45,-1.97,2.46
7.559,0.09,0.78,-2.57,2.69
7.569,0.26,3.41,-2.44,4.20
7.579,0.80,6.59,-2.36,7.05
7.589,1.68,9.45,-2.37,9.88
7.599,2.21,10.89,-0.80,11.14
7.609,1.67,8.01,1.79,8.38
7.619,0.12,2.96,3.70,4.74
7.629,-1.02,0.22,4.56,4.68
7.639,-1.18,-1.04,4.34,4.61
7.649,-0.53,-1.91,3.21,3.77
7.659,0.34,-2.98,1.86,3.53
7.669,1.03,-3.86,1.09,4.14
7.679,1.26,-4.16,0.79,4.42
7.689,0.91,-3.93,-1.07,4.17
7.699,0.11,-3.13,-2.74,4.17
7.709,-0.66,-2.28,-2.55,3.48
7.719,-0.81,-1.78,-1.84,2.68
7.728,-0.24,-1.54,-0.92,1.81
7.738,0.33,-1.54,0.11,1.58
7.748,0.53,-1.59,1.15,2.03
7.759,0.46,-1.71,1.82,2.54
7.768,0.35,-1.88,1.78,2.61
7.779,0.30,-1.81,1.07,2.13
7.789,0.39,-1.86,0.06,1.90
7.799,0.55,-2.13,-0.98,2.41
7.808,0.74,-2.31,-1.98,3.13
7.818,0.83,-2.36,-2.94,3.86
7.828,0.89,-2.41,-3.75,4.55
7.838,1.01,-2.36,-4.35,5.05
7.848,1.21,-2.04,-4.82,5.38
7.858,1.48,-1.45,-5.05,5.46
7.868,1.94,-0.35,-4.54,4.96
7.878,2.80,1.78,-2.67,4.26
7.888,3.93,4.72,0.34,6.15
7.898,4.52,8.42,3.25,10.10
7.908,3.48,11.95,4.10,13.10
7.918,-0.02,12.83,3.63,13.34
7.928,-2.64,13.74,3.36,14.39
7.938,-5.44,13.54,2.29,14.77
7.948,-8.06,10.25,0.93,13.07
7.958,-7.07,5.92,0.08,9.23
7.968,-3.43,2.63,0.67,4.38
7.978,-0.58,0.52,0.28,0.83
7.988,1.37,-1.92,-1.05,2.58
7.998,2.75,-4.29,-2.38,5.62
8.008,3.35,-6.58,-2.99,7.97
8.018,3.26,-8.13,-2.35,9.07
8.028,2.47,-8.52,-1.13,8.94
8.038,0.52,-7.54,-0.39,7.57
8.048,-1.41,-7.24,-0.03,7.37
8.058,-2.60,-7.59,0.22,8.03
8.068,-3.31,-7.49,0.53,8.21
8.078,-3.70,-6.87,0.83,7.84
8.088,-3.90,-5.51,1.06,6.83
8.098,-4.00,-3.28,1.41,5.36
8.108,-4.20,-0.61,1.67,4.56
8.118,-4.50,1.82,1.36,5.04
8.128,-4.62,3.62,0.53,5.90
8.138,-4.42,4.45,0.14,6.28
8.148,-3.83,4.23,0.84,5.77
8.158,-2.44,3.16,1.83,4.39
8.168,-0.52,2.21,1.39,2.66
8.178,1.12,1.68,0.16,2.02
8.188,2.02,1.23,-0.75,2.48
8.198,2.36,0.98,-1.08,2.77
8.208,2.43,0.73,-0.88,2.68
8.218,2.23,0.39,-0.31,2.29
8.228,1.90,-0.22,0.33,1.95
8.238,1.70,-1.09,0.70,2.14
8.248,1.62,-1.93,0.57,2.58
8.258,1.48,-2.57,0.16,2.97
8.268,1.16,-3.05,-0.39,3.29
8.278,0.74,-3.37,-0.89,3.57
8.288,0.25,-3.45,-1.24,3.67
8.298,-0.27,-3.25,-1.51,3.60
8.308,-0.85,-3.04,-1.58,3.53
8.318,-1.41,-2.88,-1.37,3.48
8.328,-1.81,-2.62,-0.91,3.31
8.338,-1.89,-2.29,-0.61,3.03
8.348,-1.82,-2.21,-0.35,2.88
8.358,-1.50,-2.37,-0.40,2.83
8.368,-0.86,-2.56,-0.59,2.76
8.378,-0.05,-2.50,-0.81,2.63
8.388,0.70,-2.19,-1.29,2.63
8.398,1.08,-1.79,-2.04,2.92
8.408,0.92,-1.24,-2.73,3.14
8.417,0.43,-0.62,-3.04,3.14
8.428,-0.09,0.00,-2.96,2.96
8.438,-0.45,0.72,-2.84,2.96
8.447,-0.50,1.48,-2.47,2.92
8.457,-0.36,2.27,-1.94,3.01
8.467,-0.16,3.36,-1.38,3.63
8.478,-0.12,4.94,-0.77,5.00
8.487,-0.58,6.77,-0.10,6.79
8.498,-1.71,8.63,0.82,8.83
8.507,-3.11,10.43,2.57,11.19
8.517,-3.89,11.51,3.94,12.77
8.527,-2.42,10.37,3.65,11.25
8.537,0.60,7.55,2.65,8.03
8.548,2.61,5.36,1.24,6.09
8.558,2.83,3.53,-0.21,4.53
8.567,1.21,2.32,-1.36,2.95
8.577,-1.33,2.44,-1.92,3.38
8.587,-3.25,3.03,-2.37,5.04
8.597,-3.99,3.43,-2.43,5.80
8.607,-3.48,3.42,-1.76,5.19
8.617,-2.30,2.64,-1.41,3.78
8.627,-1.42,1.24,-1.15,2.21
8.637,-0.93,-0.23,-0.62,1.14
8.647,-0.41,-1.48,-0.10,1.54
8.657,0.14,-2.61,0.31,2.63
8.667,0.56,-3.77,0.64,3.87
8.677,1.02,-4.79,0.87,4.97
8.687,1.42,-5.67,0.83,5.90
8.697,1.60,-6.56,0.93,6.81
8.707,1.53,-7.78,1.15,8.01
8.717,1.17,-8.97,1.41,9.16
8.727,0.61,-9.56,1.73,9.74
8.737,0.25,-9.14,1.73,9.30
8.747,0.04,-7.85,1.26,7.95
8.757,-0.14,-5.95,0.34,5.96
8.767,-0.40,-3.83,-0.41,3.87
8.777,-0.67,-1.69,-1.29,2.23
8.787,-0.91,0.63,-2.09,2.36
8.797,-1.04,3.93,-2.25,4.65
8.807,-0.33,7.63,-2.54,8.05
8.817,1.08,10.21,-2.68,10.61
8.827,2.36,10.23,-1.15,10.56
8.837,2.66,5.82,1.28,6.52
8.847,1.78,2.23,3.27,4.34
8.857,0.90,0.42,4.29,4.41
8.867,0.62,-0.75,4.12,4.23
8.877,0.72,-1.52,2.75,3.22
8.887,0.86,-2.04,1.51,2.68
8.897,0.89,-2.20,0.62,2.46
8.907,0.76,-2.24,-1.25,2.67
8.917,0.31,-2.08,-2.88,3.56
8.927,-0.24,-1.72,-2.61,3.13
8.937,-0.49,-1.60,-1.70,2.39
8.947,-0.39,-1.51,-0.31,1.59
8.957,-0.23,-1.67,1.21,2.07
8.967,-0.25,-2.16,2.39,3.23
8.977,-0.36,-2.63,2.67,3.76
8.986,-0.43,-2.94,2.11,3.64
8.997,-0.33,-3.40,1.26,3.64
9.007,-0.09,-4.05,0.37,4.07
9.017,0.13,-4.60,-0.57,4.64
9.027,0.25,-5.07,-1.39,5.26
9.037,0.28,-5.48,-2.04,5.86
9.047,0.33,-5.69,-2.63,6.28
9.057,0.35,-5.61,-3.19,6.46
9.067,0.23,-5.18,-3.76,6.40
9.077,0.25,-4.41,-4.34,6.19
9.087,0.72,-3.29,-4.71,5.79
9.097,1.63,-1.56,-4.44,4.98
9.106,2.42,1.06,-3.38,4.29
9.117,2.76,4.60,-1.30,5.52
9.127,3.24,8.83,1.58,9.54
9.137,4.67,13.13,3.53,14.38
9.147,4.55,15.92,4.46,17.15
9.158,2.20,16.24,2.96,16.65
9.167,-0.09,15.86,1.04,15.89
9.178,-3.43,13.61,0.93,14.07
9.186,-6.21,10.49,-0.73,12.21
9.196,-7.13,7.17,-3.50,10.70
9.206,-5.68,3.52,-3.77,7.67
9.216,-1.17,0.74,-1.91,2.35
9.227,2.13,-0.87,-1.01,2.52
9.236,3.53,-2.16,-0.81,4.22
9.246,4.34,-3.47,-1.14,5.68
9.256,4.70,-5.16,-1.47,7.13
9.266,4.01,-6.05,-0.76,7.30
9.276,1.95,-4.96,0.44,5.35
9.286,-0.26,-4.36,1.45,4.61
9.296,-1.26,-4.68,2.17,5.31
9.306,-1.61,-4.62,2.46,5.48
9.316,-1.90,-4.43,2.43,5.40
9.326,-2.28,-4.30,2.29,5.38
9.336,-2.76,-4.38,1.98,5.54
9.346,-3.27,-4.51,1.41,5.75
9.356,-3.72,-4.56,0.65,5.92
9.366,-4.11,-4.38,-0.09,6.01
9.376,-4.52,-3.86,-0.78,5.99
9.386,-4.80,-3.06,-1.25,5.83
9.396,-4.72,-2.24,-1.41,5.41
9.406,-4.10,-1.58,-1.21,4.55
9.416,-3.13,-0.74,-0.62,3.27
9.426,-2.18,0.91,-0.13,2.36
9.436,-1.06,2.70,-0.42,2.94
9.446,0.59,4.36,-1.08,4.53
9.456,2.38,5.56,-0.71,6.09
9.466,3.72,5.71,0.79,6.86
9.476,4.21,4.24,2.48,6.47
9.486,3.20,1.51,2.99,4.63
9.496,2.07,-0.78,2.25,3.16
9.506,1.38,-2.23,1.03,2.82
9.516,0.80,-3.22,-0.12,3.31
9.526,0.16,-3.87,-1.02,4.01
9.536,-0.54,-4.24,-1.81,4.64
9.546,-1.28,-4.30,-2.46,5.12
9.556,-1.86,-4.08,-2.98,5.39
9.566,-2.32,-3.71,-3.28,5.47
9.576,-2.55,-3.34,-3.00,5.16
9.586,-2.45,-3.05,-2.11,4.45
9.596,-2.13,-2.97,-0.43,3.68
9.606,-1.67,-2.95,1.25,3.61
9.616,-0.94,-3.01,0.97,3.30
9.626,-0.22,-2.86,-0.00,2.87
9.636,0.42,-2.46,-0.94,2.66
9.646,1.01,-1.75,-2.04,2.87
9.656,1.29,-1.05,-3.22,3.63
9.666,1.20,-0.62,-4.02,4.24
9.676,0.82,-0.48,-4.13,4.23
9.686,0.34,-0.49,-3.63,3.68
9.696,-0.03,-0.27,-2.83,2.84
9.705,-0.22,0.26,-1.90,1.93
9.716,-0.19,1.02,-0.95,1.40
9.725,0.04,1.94,-0.30,1.96
9.736,0.11,2.93,-0.06,2.94
9.746,-0.28,4.20,-0.06,4.21
9.756,-1.17,5.92,0.05,6.03
9.766,-2.44,8.02,0.80,8.42
9.776,-3.66,10.23,2.35,11.12
9.786,-3.91,12.46,2.96,13.39
9.796,-2.88,13.25,2.72,13.83
9.806,-0.60,11.12,1.71,11.27
9.816,1.25,8.29,-0.00,8.38
9.825,1.82,6.17,-1.33,6.57
9.835,1.30,4.70,-1.58,5.12
9.845,0.03,4.12,-1.08,4.26
9.856,-1.42,3.82,-0.52,4.11
9.865,-2.62,3.01,-0.07,3.99
9.876,-3.04,1.91,0.29,3.60
9.885,-2.72,0.85,0.27,2.86
9.895,-2.14,-0.24,-0.08,2.15
9.905,-1.58,-1.44,-0.30,2.16
9.915,-0.85,-2.68,-0.19,2.82
9.925,-0.06,-3.92,0.03,3.92
9.935,0.62,-5.18,0.06,5.21
9.945,0.98,-6.32,-0.10,6.40
9.955,0.92,-7.29,-0.37,7.35
9.965,0.52,-8.04,-0.60,8.08
9.976,-0.07,-8.79,-0.82,8.83
9.985,-0.80,-9.73,-0.58,9.78
9.995,-1.40,-10.14,-0.00,10.24
10.005,-1.50,-9.24,0.52,9.37
10.015,-1.11,-7.13,0.45,7.23
10.025,-0.56,-5.04,-0.22,5.08
10.035,-0.12,-2.91,-0.83,3.03
10.045,0.34,-1.01,-1.66,1.97
10.055,1.04,1.34,-1.89,2.54
10.065,2.24,4.52,-1.16,5.18
10.075,3.29,7.70,-0.21,8.38
10.085,4.11,9.41,0.86,10.31
10.095,4.47,8.42,1.90,9.73
10.105,3.76,4.35,1.77,6.01
10.115,2.64,1.26,1.47,3.27
10.125,1.56,-0.39,1.68,2.32
10.135,0.70,-1.43,2.00,2.56
10.145,0.32,-2.22,1.82,2.88
10.155,0.25,-2.79,1.45,3.15
10.165,0.11,-2.95,1.20,3.19
10.175,-0.23,-2.87,-0.39,2.90
10.185,-0.67,-2.80,-2.45,3.78
10.195,-0.94,-2.45,-2.91,3.92
10.205,-0.90,-2.04,-2.37,3.25
10.215,-0.51,-1.67,-1.38,2.23
10.225,-0.06,-1.45,-0.06,1.45
10.235,0.17,-1.49,1.23,1.94
10.245,0.21,-1.79,2.25,2.89
10.255,0.02,-1.78,2.84,3.35
10.265,-0.16,-1.22,2.14,2.47
10.275,-0.08,-1.05,0.66,1.24
10.285,0.12,-1.41,-0.68,1.57
10.295,0.27,-1.88,-1.89,2.68
10.305,0.34,-2.06,-2.96,3.62
10.315,0.51,-1.98,-3.86,4.37
10.325,0.91,-1.81,-4.53,4.96
10.335,1.60,-1.60,-5.00,5.49
10.345,2.46,-1.32,-5.27,5.97
10.355,3.39,-0.64,-4.81,5.92
10.365,4.31,0.87,-2.49,5.06
10.374,5.33,3.28,1.05,6.35
10.385,6.51,6.20,4.22,9.93
10.395,6.14,9.15,5.18,12.18
10.404,3.34,10.46,2.83,11.34
10.415,-0.04,11.34,0.33,11.34
10.425,-3.60,12.38,0.36,12.90
10.435,-7.43,10.48,0.76,12.87
10.445,-8.39,7.11,-0.41,11.01
10.454,-5.15,2.72,-0.58,5.86
10.464,-1.01,0.10,-0.18,1.03
10.474,1.09,-1.95,-0.36,2.27
10.484,2.08,-3.90,-0.90,4.51
10.494,2.35,-5.72,-1.67,6.41
10.504,2.23,-7.07,-1.90,7.66
10.514,1.07,-7.11,-1.15,7.28
10.524,-0.81,-5.71,-0.42,5.78
10.534,-1.95,-5.29,0.01,5.63
10.544,-2.40,-5.24,0.59,5.79
10.554,-2.51,-4.78,1.15,5.52
10.564,-2.50,-3.88,1.55,4.88
10.574,-2.61,-2.63,1.79,4.12
10.584,-2.92,-1.25,1.74,3.62
10.594,-3.40,0.19,1.37,3.67
10.604,-3.92,1.42,0.88,4.27
10.614,-4.42,2.15,0.46,4.94
10.624,-4.74,2.20,0.57,5.26
10.634,-4.42,1.51,1.15,4.81
10.644,-3.00,0.45,1.48,3.38
10.654,-1.29,0.15,1.02,1.65
10.664,0.03,0.25,0.39,0.47
10.674,0.86,0.54,-0.23,1.04
10.684,1.50,1.06,-0.79,2.00
10.694,1.99,1.44,-0.85,2.60
10.704,2.14,1.39,-0.17,2.56
10.714,1.93,0.76,0.57,2.15
10.724,1.69,-0.30,0.79,1.88
10.734,1.60,-1.44,0.60,2.24
10.744,1.58,-2.53,0.22,2.99
10.754,1.46,-3.42,-0.33,3.73
10.764,1.06,-3.99,-0.90,4.23
10.774,0.38,-4.17,-1.41,4.42
10.784,-0.50,-3.89,-1.86,4.34
10.794,-1.34,-3.37,-2.15,4.21
10.804,-1.96,-2.73,-2.13,3.98
10.814,-2.31,-2.18,-1.79,3.64
10.824,-2.25,-1.69,-1.15,3.04
10.834,-1.85,-1.30,-0.47,2.30
10.844,-1.19,-1.11,-0.16,1.64
10.854,-0.41,-1.02,-0.22,1.12
10.864,0.29,-0.98,-0.48,1.13
10.874,0.94,-1.03,-0.85,1.63
10.884,1.36,-1.08,-1.28,2.15
10.894,1.29,-0.89,-1.70,2.31
10.904,0.83,-0.55,-1.97,2.21
10.914,0.42,-0.39,-2.10,2.18
10.924,0.11,-0.30,-2.09,2.12
10.934,-0.22,-0.22,-1.84,1.86
10.944,-0.59,-0.08,-1.49,1.60
10.954,-0.95,0.21,-1.27,1.60
10.964,-1.20,0.77,-1.12,1.82
10.974,-1.43,1.66,-0.87,2.35
10.984,-1.82,2.85,-0.46,3.41
10.994,-2.58,4.45,0.09,5.14
11.004,-3.66,6.42,0.91,7.45
11.014,-4.61,8.44,2.22,9.88
11.024,-4.54,10.00,3.20,11.44
11.034,-2.55,10.03,3.24,10.84
11.044,0.22,8.58,3.07,9.12
11.053,1.82,6.33,2.27,6.97
11.063,2.06,3.47,1.14,4.19
11.074,1.16,1.28,0.06,1.72
11.084,-0.81,1.03,-0.73,1.50
11.094,-2.89,1.88,-1.29,3.68
11.104,-3.94,2.46,-2.22,5.15
11.114,-4.25,2.64,-2.58,5.63
11.123,-3.51,2.49,-1.78,4.66
11.134,-2.17,1.52,-0.75,2.76
11.144,-0.99,0.24,-0.38,1.08
11.153,-0.03,-0.75,-0.50,0.90
11.164,0.75,-1.90,-0.60,2.13
11.174,1.28,-3.28,-0.48,3.56
11.183,1.55,-4.49,-0.39,4.77
11.193,1.70,-5.32,-0.33,5.60
11.203,1.73,-5.67,-0.29,5.93
11.214,1.58,-5.90,-0.31,6.12
11.223,1.43,-6.20,-0.32,6.38
11.233,1.46,-6.65,-0.21,6.81
11.243,1.71,-7.03,-0.01,7.23
11.254,2.02,-7.12,0.45,7.41
11.263,2.14,-6.60,0.91,7.00
11.273,1.98,-5.37,0.97,5.81
11.283,1.44,-3.46,0.78,3.83
11.293,0.78,-1.22,0.05,1.45
11.303,0.38,1.21,-1.16,1.72
11.313,0.72,4.14,-2.17,4.73
11.323,1.92,7.51,-2.79,8.23
11.333,3.02,9.83,-2.50,10.58
11.343,3.42,9.28,-1.35,9.99
11.353,2.69,5.54,-0.19,6.16
11.363,1.10,2.30,1.26,2.84
11.373,-0.48,0.29,2.47,2.54
11.383,-1.56,-1.48,3.00,3.69
11.393,-1.96,-2.68,2.88,4.40
11.403,-1.75,-3.38,2.08,4.34
11.413,-1.39,-3.92,1.35,4.37
11.423,-1.06,-4.08,1.22,4.38
11.433,-0.66,-3.57,0.83,3.73
11.443,-0.35,-2.69,-0.53,2.76
11.453,-0.26,-1.86,-1.46,2.38
11.463,-0.21,-1.37,-1.44,2.00
11.473,-0.09,-1.09,-1.01,1.48
11.483,0.15,-1.06,-0.37,1.13
11.493,0.32,-1.14,0.44,1.26
11.503,0.50,-1.19,0.99,1.63
11.513,0.77,-1.40,1.14,1.96
11.523,0.90,-1.62,1.09,2.15
11.533,0.92,-1.56,0.68,1.94
11.543,0.93,-1.57,0.04,1.83
11.553,1.02,-1.89,-0.72,2.27
11.563,1.15,-2.32,-1.46,2.97
11.573,1.34,-2.73,-2.15,3.73
11.583,1.55,-3.00,-2.81,4.39
11.593,1.74,-2.98,-3.42,4.86
11.603,1.91,-2.65,-3.89,5.08
11.613,1.99,-1.90,-4.03,4.88
11.623,2.20,-0.61,-3.34,4.05
11.633,3.06,1.43,-1.72,3.79
11.643,4.52,3.87,0.42,5.96
11.653,5.00,7.30,2.84,9.30
11.663,3.94,11.51,2.46,12.41
11.673,1.30,12.97,0.70,13.05
11.683,-0.83,12.76,0.16,12.79
11.694,-2.52,12.08,1.10,12.39
11.703,-4.67,9.46,1.69,10.69
11.713,-4.91,6.20,0.13,7.91
11.723,-2.08,2.79,-0.42,3.50
11.733,1.02,1.07,-0.36,1.52
11.743,2.15,-0.52,-1.02,2.43
11.753,2.41,-1.85,-1.95,3.61
11.763,2.45,-2.72,-2.91,4.68
11.773,2.35,-3.24,-3.15,5.09
11.783,1.75,-2.47,-1.97,3.61
11.793,0.76,-1.54,-0.15,1.73
11.803,0.17,-1.69,1.36,2.18
11.813,0.15,-1.79,2.13,2.79
11.823,0.09,-1.82,2.13,2.80
11.833,-0.22,-2.12,1.78,2.78
11.843,-0.71,-2.77,1.46,3.21
11.852,-1.34,-3.54,1.20,3.97
11.863,-2.07,-4.35,1.00,4.92
11.872,-2.81,-5.18,0.73,5.94
11.882,-3.59,-5.94,0.39,6.95
11.893,-4.30,-6.23,-0.06,7.57
11.902,-4.66,-5.90,-0.79,7.56
11.913,-4.54,-5.07,-1.53,6.98
11.922,-4.02,-3.92,-1.62,5.84
11.932,-3.33,-2.57,-0.87,4.30
11.942,-2.63,-0.93,-0.16,2.79
11.952,-2.00,0.84,-0.07,2.17
11.962,-1.27,2.64,-0.33,2.95
11.972,-0.31,4.36,-0.40,4.39
11.982,0.92,5.53,0.17,5.61
11.992,2.14,5.27,1.36,5.85
12.002,2.73,3.33,2.27,4.87
12.012,2.51,0.98,2.33,3.56
12.023,1.87,-0.74,1.85,2.73
12.032,1.13,-1.53,0.95,2.13
12.042,0.38,-1.65,-0.12,1.69
12.052,-0.31,-1.64,-1.14,2.02
12.062,-0.84,-1.58,-2.00,2.68
12.072,-1.22,-1.41,-2.46,3.09
12.082,-1.43,-1.25,-2.43,3.09
12.092,-1.50,-1.08,-1.90,2.65
12.102,-1.53,-1.08,-0.86,2.06
12.112,-1.61,-1.31,0.42,2.12
12.122,-1.58,-1.62,1.33,2.62
12.132,-1.32,-1.95,1.69,2.90
12.142,-0.94,-2.37,1.50,2.96
12.152,-0.50,-2.77,0.99,2.99
12.162,-0.08,-3.06,0.37,3.08
12.172,0.22,-3.14,-0.41,3.17
12.182,0.36,-2.83,-1.30,3.13
12.192,0.33,-2.38,-2.27,3.30
12.202,0.22,-1.96,-3.04,3.63
12.212,0.14,-1.52,-3.36,3.69
12.222,0.19,-1.10,-3.29,3.47
12.232,0.39,-0.86,-3.00,3.15
12.242,0.61,-0.74,-2.62,2.79
12.252,0.69,-0.59,-2.23,2.41
12.262,0.60,-0.43,-1.85,1.99
12.272,0.41,-0.31,-1.42,1.51
12.282,0.18,-0.15,-0.99,1.02
12.292,-0.09,0.12,-0.65,0.67
12.302,-0.45,0.56,-0.46,0.85
12.312,-0.88,1.13,-0.29,1.46
12.322,-1.33,1.63,-0.02,2.10
12.332,-1.82,2.04,0.33,2.76
12.342,-2.43,2.56,0.76,3.61
12.352,-2.95,3.34,1.27,4.64
12.362,-2.95,4.44,1.45,5.52
12.372,-1.83,5.75,1.10,6.14
12.382,0.50,6.38,0.55,6.43
12.392,2.58,6.00,0.33,6.54
12.402,3.16,4.95,0.23,5.88
12.412,1.97,3.66,-0.19,4.16
12.422,-0.30,3.17,-0.72,3.26
12.432,-2.37,3.63,-0.99,4.44
12.442,-3.71,4.82,-0.88,6.14
12.452,-4.28,6.60,-0.96,7.93
12.462,-4.46,7.87,-0.57,9.07
12.472,-4.38,7.60,-0.20,8.77
12.482,-4.00,6.19,-0.10,7.37
12.491,-3.21,4.77,0.02,5.75
12.501,-2.38,3.49,0.09,4.22
12.511,-1.76,2.08,0.08,2.73
12.521,-1.17,0.49,0.02,1.27
12.531,-0.56,-1.08,-0.13,1.23
12.542,0.10,-2.56,-0.20,2.57
12.552,0.71,-3.97,-0.10,4.03
12.562,1.12,-5.21,0.00,5.32
12.571,1.27,-6.22,0.13,6.35
12.581,1.29,-7.13,0.25,7.25
12.592,1.29,-7.90,0.21,8.01
12.601,1.35,-8.43,-0.17,8.54
12.611,1.43,-8.70,-0.75,8.85
12.622,1.56,-8.80,-1.46,9.05
12.631,1.64,-8.56,-2.15,8.98
12.641,1.57,-7.78,-2.54,8.34
12.651,1.39,-6.45,-2.71,7.13
12.661,1.21,-4.54,-2.76,5.45
12.671,1.02,-2.26,-2.54,3.55
12.681,0.83,0.38,-1.80,2.01
12.691,0.51,3.26,-0.93,3.43
12.701,0.10,6.63,-0.20,6.63
12.711,-0.08,10.46,0.27,10.47
12.721,0.18,13.10,1.47,13.19
12.732,0.21,10.31,3.24,10.80
12.741,0.13,4.56,4.28,6.25
12.751,0.09,0.94,3.96,4.07
12.761,0.17,-1.26,3.22,3.46
12.771,0.13,-2.27,2.65,3.49
12.781,-0.01,-2.55,2.04,3.26
12.791,-0.11,-2.66,1.35,2.98
12.801,-0.27,-2.84,0.64,2.92
12.811,-0.56,-3.06,0.00,3.11
12.821,-0.97,-3.21,-0.62,3.41
12.831,-1.28,-3.37,-1.32,3.84
12.841,-1.24,-3.59,-1.62,4.13
12.851,-0.77,-3.42,-1.27,3.72
12.861,-0.06,-2.90,-0.71,2.99
12.871,0.64,-2.54,-0.23,2.63
12.881,1.05,-2.14,0.34,2.41
12.891,1.13,-1.62,0.89,2.16
12.901,1.03,-1.13,1.30,2.01
12.911,0.94,-0.79,1.45,1.90
12.921,0.95,-0.75,1.20,1.70
12.931,0.96,-0.89,0.76,1.51
12.941,0.98,-1.18,0.37,1.58
12.951,1.03,-1.58,-0.02,1.88
12.961,0.98,-2.04,-0.50,2.32
12.971,0.87,-2.57,-1.04,2.91
12.981,0.72,-3.02,-1.54,3.47
12.991,0.54,-3.18,-2.06,3.83
13.001,0.36,-3.04,-2.49,3.94
13.011,0.26,-2.64,-2.84,3.89
13.021,0.33,-2.04,-3.02,3.66
13.031,0.56,-1.15,-3.09,3.34
13.041,0.97,-0.01,-3.01,3.17
13.051,1.47,1.34,-2.32,3.05
13.061,1.97,3.35,-0.45,3.91
13.071,2.43,5.55,1.29,6.20
13.081,2.50,7.52,2.02,8.18
13.091,1.41,9.48,1.50,9.70
13.101,-0.43,10.84,0.72,10.87
13.111,-2.23,11.37,0.47,11.59
13.121,-4.22,10.47,0.06,11.28
13.130,-5.63,8.47,-1.08,10.23
13.141,-4.84,6.27,-2.11,8.20
13.151,-1.77,3.68,-1.59,4.38
13.160,1.51,2.52,-1.02,3.11
13.170,3.09,1.59,-1.05,3.63
13.181,3.64,0.59,-1.68,4.05
13.190,3.63,-0.59,-2.30,4.34
13.201,3.00,-1.72,-2.03,4.01
13.211,1.81,-1.62,-0.91,2.59
13.220,0.78,-0.70,0.52,1.17
13.231,0.53,-0.91,1.52,1.84
13.240,0.66,-1.35,2.01,2.50
13.251,0.57,-1.58,1.85,2.50
13.260,0.19,-1.91,1.40,2.37
13.270,-0.31,-2.54,1.13,2.80
13.280,-0.77,-3.33,1.00,3.56
13.290,-1.12,-4.14,0.84,4.37
13.300,-1.38,-5.02,0.64,5.24
13.310,-1.67,-5.81,0.44,6.07
13.320,-1.97,-6.30,0.22,6.60
13.330,-2.14,-6.33,-0.21,6.68
13.340,-2.11,-5.78,-0.80,6.20
13.351,-1.97,-4.72,-1.13,5.24
13.360,-1.87,-3.38,-0.97,3.98
13.370,-1.74,-1.99,-0.61,2.71
13.380,-1.63,-0.69,-0.42,1.82
13.390,-1.60,0.49,-0.32,1.70
13.400,-1.46,1.60,-0.28,2.19
13.410,-1.01,2.45,-0.06,2.65
13.420,-0.19,2.74,0.54,2.80
13.430,0.84,2.28,1.08,2.66
13.440,1.68,1.43,1.26,2.54
13.450,2.03,0.40,1.10,2.35
13.460,1.76,-0.58,0.65,1.97
13.470,1.19,-1.25,-0.01,1.73
13.480,0.65,-1.73,-0.72,1.98
13.490,0.13,-1.97,-1.25,2.34
13.500,-0.34,-1.89,-1.51,2.44
13.510,-0.70,-1.56,-1.41,2.21
13.520,-0.95,-0.99,-1.08,1.75
13.530,-1.20,-0.38,-0.50,1.35
13.540,-1.46,0.03,0.02,1.46
13.550,-1.72,0.30,0.40,1.79
13.560,-1.86,0.39,0.52,1.97
13.570,-1.84,0.32,0.45,1.92
13.580,-1.63,-0.06,0.26,1.65
13.590,-1.31,-0.74,-0.05,1.50
13.600,-0.88,-1.30,-0.37,1.61
13.610,-0.40,-1.60,-0.58,1.75
13.620,0.08,-1.85,-0.92,2.07
13.630,0.49,-2.14,-1.40,2.60
13.640,0.88,-2.39,-1.92,3.19
13.650,1.30,-2.44,-2.25,3.56
13.660,1.66,-2.22,-2.30,3.60
13.670,1.77,-1.83,-2.03,3.25
13.680,1.70,-1.39,-1.68,2.76
13.690,1.45,-0.92,-1.30,2.15
13.700,0.96,-0.50,-1.07,1.52
13.710,0.46,-0.26,-1.09,1.21
13.720,0.12,-0.10,-1.18,1.19
13.730,-0.20,0.13,-1.24,1.26
13.740,-0.58,0.36,-1.22,1.40
13.750,-1.01,0.57,-1.14,1.63
13.760,-1.37,0.72,-1.02,1.85
13.770,-1.48,0.77,-0.92,1.91
13.780,-1.26,0.71,-0.96,1.73
13.790,-0.90,0.72,-1.11,1.60
13.800,-0.94,1.13,-1.26,1.93
13.810,-1.37,2.04,-1.47,2.87
13.820,-1.84,3.14,-0.54,3.68
13.830,-1.84,4.61,0.44,4.99
13.839,-0.39,6.76,0.25,6.78
13.850,2.21,7.77,0.23,8.08
13.860,3.59,6.42,1.25,7.46
13.870,2.35,4.11,1.83,5.07
13.879,-0.06,2.99,1.24,3.23
13.889,-2.31,2.76,-0.11,3.60
13.900,-3.85,3.59,-1.56,5.49
13.909,-4.72,5.31,-2.39,7.50
13.919,-4.74,6.95,-2.22,8.70
13.929,-4.11,7.24,-1.42,8.44
13.939,-3.48,5.43,-0.46,6.46
13.949,-2.82,3.88,-0.22,4.80
13.959,-2.38,3.36,-0.31,4.13
13.969,-2.04,3.01,-0.20,3.64
13.979,-1.59,2.07,0.04,2.61
13.989,-0.98,0.91,0.21,1.35
13.999,-0.35,-0.27,0.22,0.49
14.009,0.26,-1.47,0.17,1.50
14.019,0.88,-2.60,0.19,2.75
14.029,1.46,-3.54,0.19,3.84
14.039,2.02,-4.33,0.06,4.78
14.049,2.61,-5.04,-0.13,5.67
14.059,3.13,-5.92,-0.25,6.70
14.069,3.50,-6.77,-0.37,7.63
14.079,3.57,-7.43,-0.50,8.26
14.089,3.43,-7.70,-0.73,8.46
14.099,3.16,-7.46,-1.05,8.17
14.109,2.81,-6.82,-1.25,7.48
14.119,2.42,-6.07,-1.26,6.66
14.129,1.78,-5.06,-1.18,5.50
14.139,0.96,-3.59,-1.04,3.86
14.149,0.07,-1.87,-1.00,2.12
14.159,-0.90,0.01,-1.04,1.37
14.169,-1.71,2.23,-1.35,3.12
14.179,-2.22,5.06,-1.62,5.76
14.189,-2.40,7.61,-0.88,8.03
14.199,-2.01,8.04,0.57,8.31
14.209,-1.14,5.06,2.18,5.63
14.219,-0.49,1.50,3.34,3.69
14.229,-0.33,-0.33,3.33,3.36
14.239,-0.27,-1.00,2.59,2.79
14.249,-0.37,-1.25,1.83,2.25
14.259,-0.42,-1.45,1.26,1.96
14.269,-0.27,-1.68,0.94,1.95
14.279,0.12,-1.88,0.68,2.00
14.289,0.65,-2.04,0.29,2.16
14.299,1.00,-2.33,-0.16,2.54
14.309,1.16,-2.73,-0.65,3.04
14.319,1.17,-3.13,-1.02,3.49
14.329,1.22,-3.27,-1.18,3.68
14.339,1.37,-3.02,-1.23,3.54
14.349,1.54,-2.43,-1.21,3.12
14.359,1.69,-1.61,-1.10,2.58
14.369,1.79,-0.82,-0.93,2.18
14.379,1.86,-0.14,-0.60,1.96
14.389,1.84,0.36,-0.17,1.88
14.399,1.68,0.70,0.33,1.85
14.409,1.34,0.89,0.77,1.78
14.419,0.80,0.84,1.15,1.63
14.429,0.14,0.63,1.40,1.54
14.439,-0.50,0.37,1.48,1.61
14.449,-1.01,-0.06,1.34,1.68
14.459,-1.30,-0.78,1.09,1.87
14.469,-1.37,-1.81,0.82,2.42
14.479,-1.40,-2.64,0.67,3.06
14.489,-1.43,-3.32,0.49,3.65
14.499,-1.44,-4.03,0.31,4.29
14.509,-1.40,-4.64,0.07,4.85
14.519,-1.26,-5.14,-0.22,5.30
14.528,-0.94,-5.46,-0.60,5.57
14.539,-0.48,-5.47,-1.02,5.59
14.549,0.01,-5.14,-1.48,5.35
14.558,0.42,-4.42,-1.94,4.84
14.568,0.69,-3.37,-2.19,4.08
14.578,0.96,-1.97,-2.33,3.20
14.589,1.32,-0.05,-2.33,2.68
14.599,1.76,2.24,-2.22,3.61
14.609,2.31,4.85,-1.91,5.70
14.618,2.87,7.79,-1.20,8.39
14.628,3.60,10.38,-0.12,10.99
14.638,5.01,12.90,1.46,13.91
14.650,6.20,15.31,2.45,16.70
14.658,6.73,15.92,1.01,17.32
14.669,4.65,13.03,-0.62,13.85
14.678,1.11,12.03,-1.14,12.14
14.689,-1.66,12.69,-1.34,12.87
14.699,-4.42,11.74,-2.66,12.82
14.708,-5.29,9.09,-3.84,11.20
14.718,-2.99,4.13,-2.73,5.79
14.728,-0.73,0.50,-1.78,1.99
14.738,0.32,-1.44,-1.53,2.12
14.748,0.82,-2.12,-1.34,2.64
14.758,0.70,-2.62,-1.24,2.98
14.768,0.22,-3.45,-1.37,3.72
14.778,-0.35,-3.83,-1.18,4.03
14.788,-0.71,-4.09,-0.49,4.18
14.798,-0.79,-4.74,0.49,4.83
14.808,-0.84,-5.03,1.41,5.29
14.818,-1.11,-4.75,2.01,5.28
14.828,-1.58,-4.20,2.23,5.02
14.838,-2.12,-3.81,2.04,4.82
14.848,-2.75,-3.81,1.57,4.96
14.858,-3.47,-3.96,1.16,5.39
14.868,-4.21,-4.04,0.87,5.90
14.878,-4.80,-3.99,0.72,6.29
14.888,-4.88,-3.56,0.70,6.08
14.898,-4.11,-2.93,0.92,5.13
14.908,-2.93,-2.43,0.88,3.91
14.918,-1.84,-1.76,0.42,2.58
14.928,-1.00,-1.09,-0.15,1.49
14.938,-0.32,-0.60,-0.80,1.05
14.948,0.38,-0.14,-1.26,1.32
14.958,1.21,0.27,-1.28,1.78
14.968,1.86,0.27,-0.79,2.03
14.978,2.22,-0.25,-0.11,2.24
14.988,2.35,-0.86,0.35,2.53
14.998,2.37,-1.37,0.41,2.77
15.008,2.28,-1.75,0.33,2.89
15.018,2.04,-2.04,0.33,2.90
15.028,1.62,-2.11,0.33,2.68
15.038,1.10,-1.95,0.28,2.25
15.048,0.55,-1.62,0.24,1.73
15.058,0.08,-1.23,0.24,1.25
15.068,-0.28,-0.92,0.19,0.98
15.078,-0.48,-0.76,0.07,0.91
15.088,-0.54,-0.72,-0.05,0.90
15.098,-0.58,-0.69,-0.14,0.91
15.108,-0.69,-0.68,-0.29,1.01
15.117,-0.82,-0.56,-0.44,1.08
15.128,-0.80,-0.40,-0.56,1.06
15.138,-0.63,-0.37,-0.59,0.94
15.148,-0.34,-0.58,-0.54,0.86
15.157,-0.00,-0.98,-0.49,1.10
15.168,0.30,-1.32,-0.44,1.42
15.178,0.57,-1.40,-0.31,1.54
15.188,0.72,-1.31,-0.17,1.51
15.197,0.76,-1.12,-0.08,1.35
15.208,0.65,-0.84,-0.06,1.06
15.218,0.48,-0.53,-0.10,0.72
15.227,0.35,-0.23,-0.16,0.44
15.237,0.25,0.09,-0.17,0.32
15.247,0.11,0.42,-0.13,0.46
15.257,-0.13,0.66,0.02,0.67
15.268,-0.51,0.65,0.14,0.84
15.277,-0.96,0.51,0.11,1.09
15.287,-1.36,0.29,-0.03,1.39
15.297,-1.64,0.10,-0.21,1.66
15.308,-1.79,-0.09,-0.38,1.83
15.317,-1.84,-0.30,-0.57,1.95
15.327,-1.80,-0.53,-0.79,2.03
15.337,-1.70,-0.79,-1.01,2.13
15.348,-1.52,-1.03,-1.18,2.19
15.357,-1.24,-1.18,-1.35,2.18
15.367,-0.88,-1.25,-1.52,2.15
15.377,-0.50,-1.26,-1.70,2.17
15.387,-0.13,-1.24,-1.84,2.22
15.397,0.17,-1.29,-1.87,2.28
15.407,0.42,-1.31,-1.79,2.25
15.417,0.57,-1.27,-1.61,2.13
15.427,0.57,-1.10,-1.45,1.91
15.437,0.45,-0.79,-1.43,1.70
15.448,0.27,-0.44,-1.49,1.58
15.457,0.15,-0.06,-1.58,1.59
15.467,0.14,0.28,-1.73,1.76
15.477,0.31,0.43,-2.12,2.19
15.487,0.71,0.32,-2.61,2.72
15.497,1.29,0.10,-3.04,3.30
15.507,1.90,-0.08,-3.35,3.86
15.517,2.49,-0.22,-3.70,4.47
15.527,3.00,-0.44,-4.27,5.24
15.537,3.54,-0.61,-5.04,6.19
15.547,4.05,-0.61,-5.43,6.80
15.557,4.41,-0.42,-4.95,6.64
15.567,4.46,0.11,-3.59,5.72
15.577,3.94,0.70,-1.88,4.42
15.587,2.82,1.24,-0.64,3.15
15.597,1.59,1.56,0.38,2.26
15.607,0.90,2.24,1.31,2.74
15.617,0.91,3.09,1.22,3.44
15.627,1.04,3.09,0.64,3.33
15.637,0.59,2.71,0.22,2.78
15.647,-0.35,2.76,-0.37,2.81
15.657,-1.37,2.87,-0.76,3.27
15.667,-2.30,2.44,-0.79,3.45
15.677,-2.90,1.25,-0.43,3.19
15.687,-3.07,-0.48,0.22,3.12
15.697,-2.83,-2.01,1.01,3.61
15.707,-2.37,-2.96,1.87,4.23
15.717,-1.83,-2.96,2.65,4.38
15.727,-1.37,-2.78,3.55,4.71
15.737,-0.96,-2.90,3.99,5.03
15.747,-0.54,-2.87,4.31,5.21
15.757,-0.04,-2.44,4.57,5.18
15.766,0.49,-1.62,4.73,5.02
15.777,1.06,-0.45,4.70,4.84
15.787,1.69,1.14,4.11,4.59
15.797,2.16,3.05,2.62,4.56
15.807,2.53,5.35,0.89,5.99
15.817,3.11,7.96,0.07,8.55
15.827,3.74,10.46,-0.46,11.12
15.837,4.60,10.80,-0.04,11.74
15.847,5.29,8.11,1.55,9.81
15.857,4.95,3.56,4.18,7.39
15.867,4.41,0.35,3.41,5.59
15.876,3.55,-1.55,1.55,4.17
15.887,2.60,-3.09,1.61,4.35
15.896,2.27,-3.91,1.45,4.75
15.907,2.34,-4.03,0.96,4.76
15.916,2.25,-3.24,0.31,3.96
15.927,1.88,-2.10,-0.20,2.83
15.936,1.31,-1.16,-0.19,1.76
15.946,0.59,-0.33,0.19,0.71
15.956,-0.14,0.14,0.26,0.33
15.966,-0.83,0.24,0.07,0.87
15.976,-1.36,0.39,0.06,1.42
15.986,-1.55,0.61,0.27,1.69
15.996,-1.31,0.62,0.63,1.58
16.006,-0.82,0.24,0.86,1.21
16.016,-0.30,-0.49,0.99,1.14
16.026,0.14,-1.06,1.06,1.51
16.036,0.47,-1.26,1.09,1.73
16.046,0.76,-1.18,1.05,1.76
16.056,1.04,-1.14,1.02,1.85
16.066,1.29,-1.15,0.86,1.93
16.076,1.55,-1.05,0.62,1.97
16.086,1.86,-0.84,0.31,2.06
16.096,2.21,-0.77,-0.01,2.34
16.106,2.54,-0.74,-0.25,2.66
16.116,2.80,-0.61,-0.48,2.90
16.126,2.99,-0.45,-0.75,3.11
16.136,3.16,-0.33,-0.98,3.32
16.146,3.35,-0.22,-1.01,3.51
16.156,3.60,-0.16,-0.94,3.72
16.166,3.86,-0.22,-0.83,3.95
16.176,4.06,-0.37,-0.72,4.14
16.186,4.23,-0.50,-0.73,4.32
16.196,4.28,-0.59,-0.77,4.39
16.206,4.20,-0.53,-0.77,4.30
16.216,4.02,-0.24,-0.91,4.13
16.226,3.80,0.18,-1.13,3.97
16.236,3.61,0.63,-1.15,3.84
16.246,3.58,1.29,-0.89,3.91
16.256,3.75,2.36,-0.17,4.44
16.266,3.71,3.68,0.91,5.30
16.276,2.64,5.07,1.92,6.03
16.286,0.07,6.65,2.46,7.09
16.296,-3.32,8.73,2.97,9.80
16.306,-6.45,10.47,2.77,12.61
16.316,-8.23,9.79,2.18,12.97
16.326,-6.87,5.08,2.60,8.93
16.336,-3.87,-0.03,3.12,4.97
16.346,-2.01,-3.66,2.68,4.96
16.356,-1.03,-6.36,1.99,6.74
16.366,-0.38,-7.85,1.16,7.95
16.376,0.09,-8.21,0.27,8.21
16.386,-0.20,-6.98,-0.63,7.01
16.396,-0.90,-5.46,-0.65,5.57
16.406,-1.41,-4.48,-0.09,4.70
16.416,-1.95,-3.55,0.50,4.08
16.426,-2.54,-2.39,0.92,3.61
16.436,-3.11,-1.16,1.35,3.58
16.446,-3.71,-0.01,1.80,4.13
16.456,-4.50,1.21,2.34,5.21
16.466,-5.50,2.55,2.79,6.68
16.476,-6.64,4.08,2.74,8.26
16.486,-7.39,5.58,2.10,9.50
16.496,-6.41,5.69,1.06,8.64
16.505,-3.60,3.35,0.17,4.92
16.516,-1.34,1.18,-0.94,2.01
16.526,0.04,-0.70,-1.88,2.00
16.536,0.82,-2.17,-2.56,3.45
16.545,1.14,-2.98,-3.07,4.43
16.555,1.19,-3.11,-3.53,4.85
16.565,1.17,-2.65,-3.73,4.72
16.576,1.11,-1.95,-3.40,4.07
16.585,0.89,-1.28,-2.85,3.25
16.596,0.57,-0.62,-2.37,2.51
16.605,0.32,0.17,-2.08,2.11
16.616,0.11,1.01,-1.86,2.12
16.626,-0.09,1.81,-1.63,2.44
16.635,-0.10,2.43,-1.40,2.81
16.646,-0.04,2.54,-0.81,2.66
16.655,-0.06,1.92,0.10,1.93
16.666,-0.14,0.66,0.56,0.87
16.675,0.05,-0.69,0.38,0.79
16.685,0.60,-1.58,0.17,1.69
16.695,1.15,-2.14,-0.16,2.43
16.705,1.50,-2.48,-0.93,3.05
16.715,1.65,-2.53,-2.06,3.65
16.725,1.63,-2.37,-3.28,4.37
16.735,1.50,-2.11,-4.37,5.08
16.745,1.42,-1.80,-5.08,5.57
16.755,1.44,-1.40,-5.08,5.46
16.765,1.60,-0.90,-4.58,4.94
16.775,1.91,-0.37,-4.07,4.51
16.785,2.28,0.21,-3.60,4.27
16.795,2.71,1.04,-3.21,4.33
16.805,3.15,2.25,-2.91,4.85
16.815,3.52,3.77,-2.49,5.73
16.825,3.66,5.55,-1.72,6.87
16.835,3.66,7.64,-0.34,8.48
16.845,3.56,10.09,1.79,10.85
16.855,3.25,12.25,4.16,13.34
16.866,2.92,12.58,4.60,13.71
16.876,3.31,11.15,3.38,12.11
16.885,3.92,9.48,2.60,10.59
16.895,3.86,7.81,1.54,8.85
16.905,3.34,5.98,0.17,6.85
16.915,2.59,4.53,-1.21,5.35
16.925,1.69,3.51,-2.42,4.59
16.935,0.79,2.94,-2.74,4.10
16.946,0.02,2.79,-2.38,3.67
16.955,-0.47,2.73,-1.64,3.22
16.965,-0.63,2.35,-0.50,2.49
16.975,-0.50,1.56,0.50,1.71
16.985,-0.11,0.42,1.02,1.11
16.995,0.37,-0.92,1.03,1.43
17.005,0.69,-2.40,0.82,2.63
17.015,0.75,-3.81,0.77,3.96
17.025,0.68,-4.97,0.93,5.10
17.035,0.61,-5.80,1.21,5.96
17.045,0.58,-6.44,1.53,6.64
17.055,0.59,-6.92,1.67,7.14
17.065,0.56,-7.26,1.65,7.46
17.075,0.52,-7.56,1.45,7.71
17.085,0.44,-7.49,1.36,7.62
17.095,0.27,-6.82,1.60,7.01
17.105,0.14,-5.56,1.86,5.86
17.115,0.06,-4.16,2.06,4.64
17.125,-0.18,-2.70,2.39,3.61
17.135,-0.59,-1.02,2.50,2.76
17.145,-1.09,0.88,1.69,2.20
17.155,-1.39,3.26,0.46,3.57
17.164,-1.00,6.12,-0.90,6.27
17.175,-0.01,7.94,-1.77,8.14
17.184,1.21,6.96,-1.52,7.22
17.195,2.31,3.74,-0.16,4.40
17.205,2.62,1.08,1.57,3.24
17.215,2.21,-0.57,2.76,3.58
17.225,1.76,-1.40,3.13,3.86
17.234,1.67,-1.93,3.00,3.94
17.245,2.00,-2.18,2.49,3.87
17.254,2.38,-2.39,1.77,3.81
17.265,2.65,-2.54,1.27,3.89
17.274,2.86,-2.41,0.92,3.86
17.284,3.00,-1.90,-0.23,3.55
17.294,2.80,-0.99,-1.45,3.30
17.304,2.57,-0.24,-1.62,3.05
17.314,2.45,-0.13,-1.28,2.76
17.325,2.27,-0.58,-0.63,2.43
17.334,1.91,-1.19,0.22,2.26
17.344,1.37,-1.85,0.97,2.50
17.354,0.86,-2.60,1.55,3.15
17.364,0.49,-3.01,1.64,3.46
17.374,0.44,-3.14,1.06,3.34
17.384,0.55,-3.28,0.34,3.34
17.394,0.70,-3.50,-0.35,3.59
17.404,0.85,-3.85,-1.01,4.08
17.414,1.00,-4.22,-1.75,4.68
17.424,1.12,-4.44,-2.34,5.15
17.434,1.27,-4.41,-2.86,5.40
17.444,1.49,-4.09,-3.31,5.47
17.454,1.83,-3.52,-3.51,5.30
17.464,2.34,-2.48,-3.42,4.83
17.474,3.06,-0.96,-2.90,4.32
17.484,3.70,1.10,-1.18,4.03
17.494,4.16,3.90,1.29,5.85
17.504,4.49,6.96,3.83,9.12
17.514,3.66,10.86,4.83,12.44
17.524,1.64,13.43,2.92,13.84
17.535,-0.20,13.74,1.16,13.79
17.545,-1.56,13.41,0.71,13.52
17.555,-3.85,10.70,0.89,11.41
17.564,-4.97,6.94,-0.19,8.54
17.574,-4.15,3.36,-0.72,5.39
17.584,-1.42,1.44,-0.06,2.03
17.594,0.90,0.39,-0.28,1.02
17.604,2.11,-0.58,-1.44,2.62
17.614,2.79,-1.51,-2.79,4.23
17.624,2.95,-2.72,-3.11,5.08
17.634,2.49,-3.75,-1.93,4.89
17.644,1.48,-3.85,-0.01,4.13
17.654,0.26,-3.54,1.43,3.82
17.664,-0.64,-3.73,2.26,4.40
17.674,-1.16,-3.66,2.71,4.71
17.684,-1.59,-3.41,2.83,4.71
17.694,-2.15,-3.22,2.77,4.76
17.704,-2.86,-3.22,2.61,5.03
17.714,-3.61,-3.28,2.19,5.35
17.724,-4.31,-3.29,1.64,5.67
17.734,-4.80,-3.16,1.06,5.84
17.744,-4.99,-2.92,0.46,5.80
17.754,-4.84,-2.75,-0.14,5.57
17.764,-4.04,-2.90,-0.30,4.98
17.774,-2.72,-2.99,0.19,4.05
17.784,-1.75,-2.66,0.63,3.24
17.794,-1.09,-1.80,0.68,2.21
17.804,-0.53,-0.56,0.26,0.81
17.814,0.21,0.90,-0.33,0.98
17.824,1.17,2.27,-0.82,2.68
17.834,2.02,3.22,-0.76,3.88
17.844,2.61,3.60,0.01,4.45
17.854,2.86,3.14,1.02,4.37
17.864,2.63,2.07,1.52,3.68
17.873,2.17,1.13,1.12,2.69
17.884,1.71,0.45,0.24,1.78
17.893,1.16,-0.24,-0.48,1.28
17.904,0.59,-0.95,-0.96,1.47
17.914,0.11,-1.52,-1.24,1.96
17.924,-0.28,-1.77,-1.39,2.27
17.934,-0.65,-1.74,-1.33,2.28
17.944,-1.07,-1.47,-0.83,2.00
17.953,-1.47,-1.20,-0.03,1.90
17.963,-1.86,-1.11,0.80,2.31
17.973,-2.08,-1.05,1.52,2.79
17.983,-2.05,-0.90,1.82,2.89
17.993,-1.89,-0.83,1.73,2.69
18.003,-1.70,-1.04,1.27,2.36
18.013,-1.45,-1.63,0.51,2.24
18.023,-1.09,-2.38,-0.33,2.64
18.033,-0.62,-2.96,-1.12,3.23
18.043,-0.12,-3.47,-1.69,3.86
18.053,0.36,-3.98,-1.99,4.46
18.063,0.85,-4.40,-1.98,4.90
18.073,1.25,-4.63,-1.76,5.11
18.083,1.34,-4.54,-1.57,4.98
18.093,1.15,-4.02,-1.65,4.50
18.103,0.98,-3.37,-1.75,3.92
18.113,0.84,-2.72,-1.55,3.24
18.123,0.73,-1.99,-1.18,2.43
18.133,0.65,-1.18,-0.81,1.57
18.143,0.63,-0.33,-0.50,0.87
18.153,0.66,0.50,-0.29,0.88
18.163,0.60,1.29,-0.22,1.44
18.173,0.28,2.22,-0.27,2.26
18.183,-0.37,3.67,-0.29,3.70
18.193,-1.10,5.61,-0.22,5.72
18.203,-1.36,7.68,-0.02,7.80
18.213,-0.57,9.37,0.40,9.40
18.223,1.38,9.68,1.19,9.85
18.233,3.15,7.94,2.12,8.80
18.243,3.27,5.02,2.43,6.46
18.253,2.37,2.86,1.51,4.01
18.263,1.20,2.51,0.11,2.78
18.273,-0.05,3.13,-0.98,3.28
18.283,-1.20,4.42,-1.66,4.87
18.293,-2.06,6.11,-1.98,6.74
18.303,-2.48,7.79,-2.09,8.44
18.313,-2.91,8.82,-1.12,9.35
18.323,-3.48,8.28,0.96,9.03
18.333,-3.47,7.47,0.93,8.28
18.343,-3.14,7.54,0.22,8.17
18.353,-2.88,7.35,0.27,7.90
18.363,-2.62,5.85,0.65,6.44
18.373,-2.21,3.80,0.76,4.46
18.383,-1.69,1.98,0.60,2.67
18.393,-1.14,0.24,0.46,1.25
18.403,-0.51,-1.53,0.28,1.64
18.413,0.20,-3.40,-0.17,3.41
18.423,0.96,-5.08,-0.82,5.23
18.433,1.57,-6.66,-1.46,7.00
18.443,2.03,-8.13,-1.87,8.58
18.453,2.36,-9.41,-2.15,9.94
18.463,2.61,-10.62,-2.30,11.17
18.473,2.79,-11.61,-2.03,12.11
18.483,2.93,-12.46,-1.68,12.91
18.493,3.11,-12.69,-1.50,13.15
18.503,3.24,-11.79,-1.41,12.31
18.513,3.18,-9.42,-1.53,10.06
18.523,3.06,-6.66,-1.71,7.53
18.533,2.77,-4.32,-1.32,5.30
18.543,2.54,-2.58,-0.97,3.75
18.553,2.02,0.05,-0.89,2.21
18.563,1.02,4.02,-2.21,4.70
18.572,-0.34,9.47,-3.55,10.12
18.583,-0.77,16.16,-2.58,16.39
18.593,-1.00,18.91,1.08,18.96
18.603,-1.54,11.93,4.31,12.78
18.613,-0.94,3.81,5.62,6.85
18.622,0.29,0.78,5.36,5.43
18.633,0.61,-0.44,4.71,4.77
18.643,-0.03,-0.66,3.35,3.42
18.652,-0.61,-0.55,1.90,2.07
18.663,-0.84,-0.84,0.78,1.42
18.672,-1.01,-1.69,-0.20,1.98
18.682,-1.35,-2.68,-1.14,3.21
18.692,-1.64,-3.90,-2.08,4.71
18.702,-1.63,-4.84,-2.24,5.57
18.712,-1.39,-4.48,-1.64,4.97
18.722,-1.00,-3.55,-1.22,3.88
18.732,-0.56,-3.09,-0.62,3.20
18.742,-0.36,-2.69,0.21,2.73
18.752,-0.41,-2.26,1.02,2.52
18.762,-0.35,-2.11,1.75,2.76
18.772,-0.30,-2.00,1.95,2.81
18.782,-0.27,-1.99,1.57,2.55
18.792,-0.35,-1.88,0.91,2.12
18.802,-0.37,-2.11,0.39,2.18
18.812,-0.32,-2.63,0.01,2.65
18.822,-0.19,-3.40,-0.33,3.42
18.832,-0.22,-4.01,-0.50,4.05
18.842,-0.46,-4.25,-0.66,4.33
18.852,-0.71,-4.16,-0.79,4.29
18.862,-0.76,-3.81,-0.88,3.99
18.872,-0.69,-3.42,-0.86,3.59
18.882,-0.52,-2.91,-0.72,3.05
18.892,-0.27,-2.22,-0.51,2.30
18.902,0.12,-1.44,-0.36,1.49
18.912,0.55,-0.68,-0.26,0.91
18.922,0.88,0.12,-0.13,0.90
18.932,1.13,0.86,0.00,1.41
18.942,1.35,1.45,0.24,2.00
18.952,1.62,1.98,0.88,2.70
18.962,2.15,2.53,1.71,3.73
18.972,2.76,3.29,2.27,4.85
18.982,2.34,5.19,2.44,6.20
18.992,0.53,7.73,0.90,7.80
19.002,-1.79,9.87,-1.26,10.11
19.012,-2.93,11.41,-2.78,12.10
19.022,-3.41,11.63,-3.03,12.49
19.033,-3.44,10.67,-2.70,11.53
19.042,-3.02,8.43,-1.32,9.06
19.052,-1.27,5.69,-0.08,5.83
19.062,1.13,5.13,0.37,5.27
19.072,3.05,5.19,-0.41,6.03
19.082,4.14,4.80,-2.36,6.76
19.092,4.39,3.97,-4.37,7.36
19.102,3.39,2.68,-4.42,6.18
19.112,1.80,1.55,-2.33,3.33
19.122,0.80,1.21,0.49,1.54
19.132,0.07,0.62,2.75,2.82
19.142,-0.67,0.32,3.75,3.83
19.152,-1.29,0.20,3.06,3.33
19.162,-1.64,-0.20,1.76,2.41
19.171,-1.67,-1.02,0.80,2.12
19.182,-1.46,-2.28,0.19,2.72
19.191,-1.19,-3.66,-0.13,3.85
19.202,-0.96,-4.76,-0.23,4.86
19.211,-0.78,-5.49,-0.18,5.55
19.222,-0.61,-5.96,-0.12,5.99
19.232,-0.48,-6.37,-0.03,6.39
19.242,-0.41,-6.71,0.10,6.72
19.251,-0.50,-6.75,0.31,6.77
19.262,-0.71,-6.24,0.55,6.31
19.272,-0.93,-5.06,0.82,5.21
19.282,-1.03,-3.33,1.00,3.63
19.292,-0.92,-1.44,0.87,1.91
19.302,-0.60,0.28,0.65,0.92
19.312,-0.22,1.43,0.43,1.51
19.321,0.06,1.95,0.33,1.98
19.332,0.12,1.92,0.42,1.97
19.342,0.20,1.39,0.71,1.57
19.351,0.52,0.52,0.97,1.21
19.361,0.89,-0.41,1.10,1.48
19.371,1.08,-1.01,1.14,1.87
19.381,1.05,-1.34,1.14,2.05
19.391,0.82,-1.59,0.87,1.99
19.401,0.48,-1.66,0.26,1.75
19.411,0.16,-1.56,-0.41,1.62
19.421,-0.13,-1.45,-0.92,1.73
19.431,-0.16,-1.33,-1.05,1.70
19.441,-0.04,-1.38,-0.82,1.61
19.451,-0.08,-1.68,-0.51,1.76
19.461,-0.22,-1.95,-0.26,1.98
19.471,-0.46,-2.08,-0.03,2.13
19.481,-0.77,-2.02,0.13,2.17
19.491,-1.05,-1.61,0.18,1.93
19.501,-1.29,-1.05,0.10,1.66
19.511,-1.42,-0.38,-0.03,1.47
19.521,-1.31,0.26,-0.11,1.34
19.531,-0.92,0.60,-0.12,1.11
19.541,-0.40,0.66,-0.15,0.78
19.551,0.09,0.52,-0.18,0.56
19.561,0.56,0.31,-0.34,0.73
19.571,1.02,0.07,-0.55,1.16
19.581,1.41,-0.32,-0.76,1.63
19.591,1.72,-0.78,-0.97,2.12
19.601,1.90,-1.18,-1.05,2.47
19.611,1.81,-1.41,-1.25,2.61
19.621,1.37,-1.55,-1.54,2.58
19.631,0.84,-1.75,-1.71,2.59
19.641,0.49,-2.06,-1.62,2.67
19.651,0.32,-2.38,-1.39,2.78
19.661,0.20,-2.64,-1.06,2.85
19.671,0.10,-2.83,-0.90,2.97
19.681,0.01,-2.86,-0.97,3.02
19.691,-0.12,-2.71,-0.98,2.88
19.702,-0.35,-2.41,-0.91,2.60
19.711,-0.70,-1.93,-0.74,2.18
19.721,-1.28,-1.14,-0.45,1.77
19.731,-2.07,0.10,0.17,2.08
19.741,-2.74,2.12,1.12,3.64
19.751,-2.91,5.49,1.32,6.36
19.761,-1.60,10.11,0.07,10.23
19.771,1.57,13.78,-0.85,13.90
19.782,4.74,13.86,0.52,14.66
19.791,4.11,8.92,2.97,10.26
19.801,0.38,5.38,2.76,6.06
19.811,-2.45,5.38,1.25,6.04
19.821,-3.88,5.96,0.04,7.11
19.831,-3.73,6.59,-0.55,7.59
19.841,-2.49,6.84,-1.04,7.35
19.851,-1.57,5.92,-1.57,6.32
19.861,-1.52,4.46,-1.78,5.04
19.871,-1.90,3.67,-1.26,4.32
19.881,-2.21,3.54,-0.49,4.20
19.891,-2.01,3.95,-0.19,4.44
19.901,-1.61,3.97,0.27,4.30
19.911,-1.11,2.77,0.65,3.05
19.921,-0.49,1.26,0.62,1.49
19.930,0.09,0.11,0.42,0.44
19.941,0.49,-1.04,0.41,1.22
19.950,0.87,-2.23,0.48,2.44
19.961,1.36,-3.47,0.42,3.75
19.970,1.94,-4.59,0.27,4.99
19.980,2.54,-5.60,0.04,6.15
19.991,2.92,-6.51,-0.19,7.14
20.000,3.03,-7.18,-0.45,7.81
20.010,2.88,-7.60,-0.70,8.16
20.020,2.58,-7.94,-1.02,8.41
20.031,2.26,-8.11,-1.30,8.52
20.041,1.85,-8.10,-1.37,8.42
20.050,1.25,-7.37,-1.42,7.61
20.060,0.52,-5.83,-1.47,6.04
20.070,-0.25,-3.99,-1.42,4.25
20.080,-1.03,-2.33,-0.99,2.74
20.090,-1.83,-0.42,-0.47,1.94
20.100,-2.26,2.21,-0.49,3.20
20.110,-2.00,5.15,-0.14,5.53
20.120,-1.48,7.32,0.82,7.51
20.130,-1.31,7.47,2.39,7.95
20.140,-1.09,4.96,3.91,6.41
20.150,-0.54,1.74,4.53,4.88
20.160,0.02,-0.05,3.78,3.78
20.170,0.38,-0.96,2.57,2.77
20.180,0.53,-1.31,1.57,2.11
20.190,0.59,-1.20,0.86,1.59
20.200,0.76,-1.05,0.45,1.37
20.210,1.10,-1.21,0.11,1.64
20.220,1.48,-1.61,-0.16,2.19
20.230,1.61,-2.33,-0.23,2.84
20.240,1.41,-3.28,-0.33,3.59
20.250,0.96,-3.92,-0.80,4.11
20.260,0.44,-3.86,-1.11,4.04
20.270,0.18,-3.17,-1.07,3.35
20.280,0.31,-2.19,-1.02,2.43
20.290,0.71,-1.68,-0.89,2.03
20.300,1.11,-1.58,-0.52,2.00
20.310,1.28,-1.63,-0.04,2.07
20.320,1.19,-1.74,0.53,2.17
20.330,0.89,-1.67,0.91,2.10
20.340,0.55,-1.53,1.06,1.94
20.350,0.35,-1.55,1.07,1.92
20.360,0.31,-1.73,0.97,2.00
20.370,0.42,-2.09,0.68,2.23
20.380,0.59,-2.53,0.29,2.61
20.390,0.71,-3.01,-0.24,3.11
20.400,0.73,-3.32,-0.88,3.51
20.410,0.68,-3.18,-1.54,3.59
20.420,0.51,-2.66,-2.01,3.38
20.430,0.36,-1.92,-2.37,3.07
20.440,0.43,-1.12,-2.71,2.96
20.450,0.94,-0.16,-2.84,3.00
20.460,1.83,1.11,-2.55,3.33
20.470,2.70,2.93,-1.26,4.18
20.480,3.43,5.26,0.86,6.34
20.490,4.31,7.77,3.02,9.38
20.500,4.31,10.36,4.60,12.13
20.510,2.21,12.01,4.01,12.85
20.521,-0.84,12.90,2.46,13.16
20.530,-3.01,13.94,1.40,14.33
20.541,-5.32,11.99,0.62,13.14
20.550,-6.21,7.27,-0.71,9.59
20.560,-4.70,3.40,-0.87,5.86
20.570,-2.06,1.27,-0.55,2.48
20.580,0.06,-0.15,-0.49,0.51
20.590,1.26,-0.98,-1.08,1.93
20.600,1.75,-1.79,-1.92,3.16
20.610,2.03,-2.54,-2.51,4.11
20.619,2.10,-2.61,-2.15,3.98
20.630,1.45,-1.06,-0.70,1.93
20.639,0.95,-0.23,0.81,1.27
20.650,0.88,-0.11,1.93,2.12
20.659,0.83,0.27,2.51,2.66
20.669,0.51,0.69,2.48,2.62
20.679,0.07,0.76,2.15,2.28
20.690,-0.27,0.23,1.60,1.64
20.699,-0.47,-0.77,0.85,1.24
20.709,-0.60,-2.26,0.17,2.34
20.719,-0.74,-3.95,-0.24,4.03
20.729,-0.89,-5.49,-0.49,5.58
20.739,-1.09,-6.59,-0.79,6.73
20.749,-1.30,-6.89,-1.07,7.09
20.759,-1.41,-6.56,-1.15,6.81
20.769,-1.49,-5.91,-0.98,6.17
20.779,-1.65,-4.88,-0.65,5.19
20.789,-1.74,-3.45,-0.45,3.89
20.799,-1.49,-1.74,-0.44,2.33
20.809,-0.75,-0.01,-0.56,0.94
20.819,0.47,1.43,-0.72,1.67
20.829,1.70,2.23,-0.52,2.85
20.839,2.56,2.43,0.14,3.54
20.849,3.04,2.14,0.92,3.83
20.859,2.98,1.28,1.22,3.47
20.869,2.52,-0.03,0.89,2.67
20.879,2.09,-1.30,0.24,2.47
20.889,1.62,-2.26,-0.39,2.81
20.899,1.12,-2.57,-0.71,2.89
20.909,0.64,-2.45,-0.87,2.68
20.919,0.13,-2.04,-0.85,2.21
20.929,-0.39,-1.48,-0.71,1.69
20.939,-0.95,-0.89,-0.50,1.39
20.949,-1.54,-0.33,-0.23,1.59
20.959,-2.06,0.23,0.13,2.08
20.969,-2.53,0.52,0.59,2.65
20.979,-2.76,0.49,0.96,2.96
20.989,-2.57,0.14,1.12,2.81
20.999,-1.99,-0.53,0.96,2.27
21.009,-1.23,-1.23,0.55,1.83
21.019,-0.52,-1.61,0.10,1.70
21.029,0.02,-1.75,-0.56,1.83
21.039,0.35,-1.82,-1.31,2.27
21.049,0.52,-1.92,-1.96,2.80
21.059,0.72,-1.93,-2.32,3.10
21.069,0.92,-1.80,-2.32,3.08
21.079,0.97,-1.53,-1.97,2.68
21.089,0.88,-1.29,-1.63,2.26
21.099,0.83,-1.20,-1.47,2.07
21.109,0.77,-1.15,-1.28,1.89
21.119,0.67,-1.13,-1.07,1.69
21.129,0.53,-1.06,-0.89,1.48
21.139,0.31,-0.80,-0.80,1.17
21.149,-0.03,-0.23,-0.66,0.70
21.159,-0.69,0.68,-0.42,1.06
21.169,-1.70,1.99,-0.28,2.63
21.179,-2.88,3.72,-0.11,4.71
21.189,-3.85,5.82,0.38,6.99
21.199,-3.96,8.28,0.92,9.23
21.209,-2.35,10.61,0.89,10.90
21.218,0.80,10.80,1.01,10.88
21.229,3.32,8.64,1.55,9.39
21.239,3.55,5.62,2.23,7.02
21.249,1.76,3.30,1.74,4.12
21.259,-0.78,3.04,0.42,3.17
21.269,-2.88,3.63,-0.79,4.70
21.279,-4.17,4.69,-2.05,6.60
21.288,-4.70,6.04,-3.16,8.28
21.298,-4.38,6.71,-2.99,8.55
21.309,-3.55,5.45,-1.04,6.58
21.319,-2.52,3.15,0.11,4.04
21.328,-1.60,1.87,-0.18,2.47
21.339,-1.02,1.14,-0.32,1.56
21.348,-0.58,0.29,-0.06,0.66
21.359,-0.24,-0.74,0.42,0.88
21.368,0.08,-1.58,0.77,1.76
21.378,0.40,-2.30,0.91,2.51
21.388,0.73,-3.02,0.80,3.21
21.398,1.09,-3.90,0.60,4.09
21.408,1.38,-4.75,0.53,4.97
21.418,1.63,-5.64,0.40,5.88
21.428,1.85,-6.65,0.13,6.90
21.439,2.07,-7.64,-0.12,7.92
21.448,2.18,-8.29,-0.44,8.58
21.458,2.13,-8.55,-0.95,8.86
21.468,1.98,-8.37,-1.71,8.76
21.478,1.78,-7.77,-2.43,8.33
21.488,1.60,-7.09,-2.76,7.78
21.498,1.40,-6.01,-2.61,6.70
21.508,1.30,-4.20,-2.31,4.96
21.518,1.37,-2.10,-2.08,3.26
21.528,1.41,-0.01,-1.67,2.19
21.539,1.28,2.29,-1.01,2.81
21.548,1.32,4.94,-0.52,5.14
21.558,1.23,7.57,0.10,7.67
21.568,0.54,9.16,1.12,9.24
21.578,-0.46,7.70,2.47,8.10
21.588,-0.74,3.78,3.90,5.48
21.598,-0.51,1.11,4.20,4.37
21.608,-0.38,-0.09,3.60,3.62
21.618,-0.46,-0.54,2.81,2.89
21.628,-0.57,-0.51,2.15,2.28
21.638,-0.62,-0.20,1.74,1.86
21.648,-0.54,-0.03,1.40,1.50
21.658,-0.21,-0.10,0.98,1.01
21.668,0.15,-0.65,0.38,0.77
21.678,0.40,-1.58,-0.34,1.67
21.688,0.54,-2.48,-0.86,2.69
21.698,0.65,-2.88,-1.03,3.13
21.708,0.77,-2.57,-0.69,2.77
21.718,0.93,-1.83,-0.21,2.07
21.728,1.26,-1.18,0.11,1.73
21.738,1.62,-0.72,0.38,1.81
21.748,1.67,-0.42,0.68,1.85
21.758,1.47,-0.19,0.94,1.76
21.768,1.11,-0.23,0.99,1.50
21.778,0.84,-0.50,0.90,1.33
21.788,0.72,-0.84,0.83,1.38
21.798,0.67,-1.13,0.64,1.46
21.808,0.65,-1.48,0.29,1.64
21.818,0.62,-1.94,-0.18,2.04
21.828,0.57,-2.40,-0.72,2.57
21.838,0.52,-2.67,-1.26,3.00
21.848,0.50,-2.66,-1.80,3.25
21.858,0.53,-2.31,-2.25,3.27
21.868,0.63,-1.79,-2.72,3.31
21.878,0.81,-1.11,-3.15,3.44
21.888,1.12,-0.14,-3.22,3.42
21.898,1.69,1.50,-2.21,3.16
21.908,2.51,3.86,-0.52,4.63
21.918,3.36,6.45,1.07,7.35
21.927,3.09,9.23,1.87,9.91
21.938,1.49,11.55,1.67,11.76
21.949,-1.10,11.93,1.71,12.10
21.959,-3.16,10.90,1.69,11.48
21.967,-5.11,8.39,1.76,9.98
21.978,-5.30,6.10,0.18,8.08
21.987,-2.75,3.52,-0.39,4.49
21.997,0.17,2.19,0.24,2.21
22.008,1.66,1.18,0.12,2.04
22.018,2.44,-0.21,-0.80,2.58
22.028,2.99,-1.85,-2.03,4.06
22.038,3.30,-3.41,-2.45,5.34
22.048,2.89,-3.85,-1.40,5.01
22.058,1.80,-2.81,0.11,3.34
22.067,0.86,-2.62,0.94,2.92
22.077,0.52,-3.02,1.18,3.28
22.087,0.39,-3.14,1.10,3.35
22.097,0.19,-3.19,0.92,3.32
22.107,-0.16,-3.50,0.81,3.60
22.117,-0.68,-4.04,0.74,4.17
22.127,-1.32,-4.60,0.76,4.85
22.138,-2.01,-5.06,0.81,5.50
22.147,-2.71,-5.52,0.72,6.18
22.157,-3.27,-5.84,0.32,6.70
22.167,-3.38,-5.76,-0.38,6.69
22.177,-2.86,-5.26,-0.99,6.07
22.187,-2.10,-4.33,-1.15,4.95
22.197,-1.50,-2.99,-0.77,3.43
22.207,-1.03,-1.51,-0.27,1.85
22.217,-0.68,-0.11,-0.07,0.69
22.227,-0.36,1.22,-0.13,1.28
22.237,0.11,2.41,-0.35,2.44
22.247,0.76,3.29,-0.53,3.42
22.257,1.49,3.91,0.03,4.18
22.267,2.25,3.55,1.20,4.37
22.277,2.56,2.02,2.12,3.89
22.287,2.33,0.26,2.21,3.22
22.297,1.90,-1.26,1.47,2.72
22.307,1.36,-2.15,0.55,2.61
22.317,0.65,-2.48,-0.19,2.57
22.327,-0.18,-2.41,-0.75,2.53
22.337,-0.94,-2.06,-1.17,2.55
22.347,-1.57,-1.58,-1.43,2.64
22.357,-2.03,-1.05,-1.44,2.70
22.367,-2.30,-0.54,-1.07,2.59
22.377,-2.44,-0.12,-0.26,2.46
22.387,-2.48,0.20,0.79,2.61
22.397,-2.42,0.40,1.42,2.83
22.407,-2.12,0.36,1.57,2.66
22.417,-1.60,0.09,1.47,2.18
22.427,-1.02,-0.33,1.13,1.56
22.437,-0.49,-0.74,0.60,1.07
22.447,-0.05,-0.91,-0.03,0.92
22.458,0.32,-0.99,-0.76,1.29
22.467,0.62,-1.13,-1.35,1.86
22.477,0.94,-1.30,-1.74,2.37
22.487,1.19,-1.50,-1.92,2.71
22.497,1.23,-1.73,-1.84,2.81
22.507,1.07,-1.86,-1.53,2.63
22.517,0.90,-2.01,-1.24,2.53
22.527,0.82,-2.30,-1.06,2.66
22.537,0.75,-2.54,-0.94,2.81
22.547,0.70,-2.59,-1.02,2.88
22.557,0.70,-2.51,-1.24,2.89
22.567,0.69,-2.29,-1.41,2.78
22.577,0.56,-1.87,-1.47,2.45
22.587,0.16,-1.09,-1.31,1.71
22.597,-0.56,0.23,-0.74,0.95
22.607,-1.33,2.01,0.16,2.42
22.617,-1.70,4.41,0.81,4.80
22.626,-1.07,7.62,0.47,7.71
22.637,0.97,10.84,-0.00,10.89
22.647,3.63,12.09,0.94,12.66
22.657,4.42,9.83,3.13,11.23
22.667,2.15,6.33,3.81,7.70
22.677,-0.72,5.50,2.46,6.07
22.686,-3.06,6.44,0.74,7.17
22.696,-4.41,7.68,-0.59,8.88
22.707,-4.75,8.63,-1.37,9.94
22.716,-4.33,8.58,-1.35,9.71
22.726,-3.77,6.91,-1.16,7.96
22.736,-3.33,4.80,-0.86,5.91
22.746,-2.89,3.58,-0.21,4.60
22.756,-2.41,3.17,0.16,3.98
22.766,-1.98,3.00,0.21,3.60
22.776,-1.67,2.24,0.54,2.84
22.786,-1.23,1.01,0.70,1.74
22.796,-0.65,-0.23,0.65,0.95
22.806,-0.08,-1.32,0.48,1.40
22.816,0.47,-2.34,0.29,2.40
22.826,1.08,-3.40,0.07,3.57
22.836,1.74,-4.49,-0.19,4.82
22.846,2.39,-5.50,-0.48,6.01
22.856,2.90,-6.48,-0.79,7.15
22.866,3.22,-7.48,-1.10,8.22
22.876,3.27,-8.37,-1.35,9.09
22.886,3.11,-9.02,-1.66,9.68
22.896,2.87,-9.46,-2.01,10.09
22.906,2.55,-9.34,-2.30,9.95
22.916,2.04,-8.57,-2.25,9.09
22.926,1.38,-7.27,-1.89,7.64
22.936,0.71,-5.61,-1.53,5.86
22.946,0.07,-3.74,-1.03,3.88
22.956,-0.53,-1.86,-0.44,1.98
22.966,-1.36,0.07,-0.00,1.36
22.976,-2.44,3.19,-0.11,4.02
22.986,-2.96,7.78,-0.46,8.34
22.996,-2.35,11.05,0.47,11.31
23.006,-1.59,10.67,3.17,11.24
23.016,-0.66,5.58,5.00,7.53
23.026,0.13,1.63,4.65,4.93
23.036,0.68,-0.21,3.95,4.02
23.046,0.71,-1.22,3.45,3.72
23.056,0.27,-1.22,2.48,2.78
23.066,-0.07,-0.84,1.47,1.70
23.076,0.04,-0.89,0.79,1.19
23.086,0.44,-1.31,0.31,1.41
23.096,0.74,-2.10,-0.16,2.23
23.106,0.82,-3.16,-0.64,3.33
23.116,0.77,-4.04,-1.21,4.28
23.126,0.63,-4.33,-1.58,4.65
23.136,0.35,-3.83,-1.60,4.16
23.146,0.25,-2.93,-1.75,3.42
23.156,0.41,-2.18,-1.67,2.78
23.166,0.74,-1.52,-0.95,1.94
23.176,0.92,-0.87,0.14,1.27
23.186,0.96,-0.26,1.06,1.46
23.196,0.99,0.31,1.51,1.83
23.206,0.97,0.67,1.50,1.90
23.216,0.82,0.71,1.18,1.61
23.226,0.68,0.31,0.75,1.06
23.236,0.72,-0.33,0.37,0.87
23.246,0.90,-1.18,-0.01,1.48
23.256,1.05,-1.97,-0.39,2.27
23.266,1.06,-2.49,-0.87,2.84
23.276,0.99,-2.78,-1.45,3.28
23.286,0.88,-2.82,-1.98,3.56
23.295,0.83,-2.80,-2.32,3.73
23.305,0.87,-2.78,-2.42,3.79
23.316,1.05,-2.78,-2.34,3.78
23.326,1.37,-2.66,-2.18,3.70
23.336,1.79,-2.38,-1.91,3.54
23.346,2.27,-1.83,-1.29,3.19
23.356,2.95,-1.12,-0.28,3.17
23.365,3.79,-0.35,1.12,3.97
23.376,3.83,1.86,2.82,5.11
23.385,2.43,5.15,2.45,6.20
23.396,0.03,7.77,0.02,7.77
23.405,-1.99,8.76,-1.84,9.17
23.416,-2.74,8.80,-2.10,9.46
23.425,-2.99,7.92,-0.99,8.52
23.435,-3.11,7.17,-0.06,7.81
23.445,-3.00,6.34,0.00,7.01
23.455,-1.58,4.10,-0.11,4.39
23.465,0.41,3.35,0.17,3.38
23.475,1.98,3.36,-0.31,3.92
23.485,3.20,2.84,-1.77,4.63
23.495,4.04,2.17,-3.46,5.75
23.505,3.90,1.35,-3.91,5.69
23.515,2.80,0.73,-2.71,3.96
23.525,1.35,0.88,-0.25,1.63
23.535,0.21,0.67,1.99,2.11
23.545,-0.32,0.51,3.24,3.29
23.555,-0.83,0.90,3.17,3.40
23.565,-1.44,1.39,2.36,3.09
23.575,-1.82,1.50,1.68,2.89
23.585,-1.79,0.91,1.25,2.37
23.595,-1.42,-0.50,0.83,1.72
23.605,-0.85,-2.40,0.43,2.58
23.615,-0.37,-3.93,0.05,3.95
23.625,-0.11,-4.90,-0.27,4.91
23.635,0.04,-5.46,-0.43,5.48
23.645,0.11,-5.78,-0.46,5.80
23.655,0.09,-5.97,-0.36,5.98
23.665,-0.08,-5.92,-0.20,5.92
23.675,-0.38,-5.59,-0.06,5.60
23.685,-0.77,-4.96,0.03,5.02
23.695,-1.17,-4.03,0.15,4.19
23.705,-1.45,-2.83,0.21,3.19
23.715,-1.63,-1.46,0.24,2.20
23.725,-1.66,-0.05,0.24,1.68
23.735,-1.60,1.15,0.18,1.98
23.745,-1.47,1.87,0.22,2.39
23.755,-1.23,1.91,0.42,2.31
23.765,-0.93,1.18,0.82,1.71
23.775,-0.70,0.48,1.06,1.36
23.785,-0.68,0.07,1.00,1.21
23.795,-0.84,-0.26,0.75,1.15
23.805,-0.96,-0.48,0.34,1.13
23.815,-0.98,-0.54,-0.14,1.13
23.825,-0.93,-0.49,-0.50,1.17
23.835,-0.82,-0.48,-0.61,1.13
23.845,-0.65,-0.48,-0.38,0.89
23.855,-0.44,-0.51,0.03,0.67
23.865,-0.24,-0.60,0.42,0.77
23.875,-0.01,-0.76,0.67,1.02
23.885,0.15,-0.98,0.70,1.22
23.895,0.22,-1.13,0.59,1.30
23.905,0.13,-1.07,0.41,1.15
23.915,-0.07,-0.86,0.24,0.89
23.925,-0.28,-0.56,0.05,0.63
23.935,-0.40,-0.30,-0.23,0.55
23.945,-0.40,-0.10,-0.47,0.62
23.955,-0.22,-0.03,-0.52,0.56
23.965,0.06,-0.08,-0.46,0.47
23.975,0.28,-0.20,-0.41,0.53
23.985,0.38,-0.30,-0.36,0.60
23.995,0.46,-0.30,-0.38,0.66
24.005,0.53,-0.21,-0.35,0.67
24.015,0.59,-0.05,-0.32,0.67
24.025,0.64,0.08,-0.33,0.72
24.035,0.65,0.10,-0.34,0.74
24.044,0.59,-0.01,-0.34,0.68
24.054,0.40,-0.24,-0.37,0.59
24.064,0.09,-0.54,-0.44,0.70
24.075,-0.26,-0.78,-0.56,0.99
24.084,-0.57,-0.92,-0.67,1.28
24.094,-0.76,-0.97,-0.71,1.42
24.104,-0.85,-0.91,-0.74,1.45
24.114,-0.86,-0.80,-0.77,1.40
24.124,-0.83,-0.75,-0.83,1.39
24.134,-0.73,-0.81,-0.88,1.40
24.144,-0.57,-0.95,-0.84,1.39
24.154,-0.38,-1.05,-0.81,1.38
24.164,-0.20,-1.06,-0.83,1.36
24.174,-0.09,-1.05,-0.92,1.40
24.184,-0.03,-0.96,-1.12,1.47
24.194,-0.09,-0.78,-1.34,1.55
24.204,-0.32,-0.44,-1.57,1.66
24.214,-0.66,0.14,-1.58,1.71
24.224,-0.84,0.84,-1.11,1.63
24.234,-0.72,1.30,-0.22,1.51
24.244,0.09,1.87,0.48,1.93
24.254,1.57,2.76,0.61,3.24
24.264,2.99,3.30,0.65,4.50
24.274,3.38,2.85,1.19,4.58
24.284,2.07,1.91,1.75,3.32
24.294,-0.18,1.52,1.45,2.11
24.304,-2.25,1.90,0.39,2.97
24.314,-3.80,3.39,-0.85,5.16
24.324,-4.57,5.43,-1.58,7.27
24.334,-4.59,7.31,-1.40,8.75
24.344,-4.34,8.30,-0.46,9.38
24.354,-4.18,7.54,0.26,8.62
24.364,-4.12,6.10,0.16,7.37
24.374,-4.14,5.48,0.04,6.87
24.384,-3.96,5.91,0.25,7.12
24.394,-3.60,6.11,0.62,7.12
24.404,-3.08,5.41,1.15,6.33
24.414,-2.42,4.11,1.53,5.01
24.424,-1.68,2.80,1.48,3.58
24.434,-0.91,1.52,1.22,2.15
24.444,-0.21,0.17,0.94,0.98
24.454,0.46,-1.18,0.63,1.42
24.464,1.04,-2.42,0.29,2.65
24.474,1.51,-3.45,-0.00,3.77
24.484,1.85,-4.20,-0.34,4.61
24.494,2.13,-4.70,-0.72,5.20
24.504,2.39,-5.07,-1.02,5.70
24.514,2.60,-5.45,-1.24,6.16
24.524,2.77,-5.89,-1.33,6.64
24.534,2.83,-6.19,-1.28,6.92
24.544,2.73,-6.16,-1.12,6.83
24.554,2.47,-5.70,-0.97,6.29
24.564,2.25,-5.18,-0.86,5.72
24.574,2.08,-4.82,-0.74,5.30
24.584,1.93,-4.47,-0.57,4.91
24.594,1.66,-3.85,-0.26,4.20
24.604,1.17,-2.89,0.19,3.13
24.613,0.41,-1.66,0.64,1.83
24.624,-0.58,0.09,0.70,0.91
24.634,-1.31,2.19,0.52,2.60
24.644,-1.35,3.91,0.43,4.16
24.653,-0.73,4.18,0.77,4.31
24.663,0.40,2.99,0.98,3.17
24.673,1.55,1.18,0.82,2.12
24.683,2.16,-0.44,0.87,2.37
24.693,2.42,-0.95,1.24,2.88
24.703,2.12,-0.56,1.40,2.60
24.713,1.15,0.30,1.17,1.67
24.723,0.10,0.86,0.91,1.25
24.734,-0.68,0.94,0.70,1.35
24.743,-1.01,0.75,0.68,1.44
24.753,-0.91,0.29,0.81,1.25
24.763,-0.52,-0.41,0.94,1.15
24.773,-0.15,-1.23,0.90,1.53
24.783,0.00,-2.10,0.50,2.16
24.793,-0.07,-2.79,0.04,2.79
24.803,-0.17,-3.06,-0.32,3.08
24.813,-0.21,-2.80,-0.50,2.85
24.823,-0.16,-2.32,-0.55,2.39
24.833,0.07,-1.84,-0.61,1.94
24.843,0.45,-1.49,-0.67,1.69
24.853,0.84,-1.26,-0.58,1.63
24.863,1.14,-1.03,-0.35,1.58
24.873,1.38,-0.79,-0.08,1.59
24.883,1.57,-0.41,0.16,1.63
24.893,1.62,0.10,0.25,1.64
24.903,1.52,0.63,0.30,1.68
24.913,1.32,1.09,0.31,1.74
24.923,1.10,1.46,0.25,1.84
24.933,0.88,1.59,0.17,1.83
24.943,0.72,1.46,0.09,1.63
24.953,0.64,0.89,-0.01,1.09
24.963,0.58,0.27,-0.08,0.64
24.973,0.49,-0.26,-0.19,0.58
24.983,0.47,-0.65,-0.28,0.85
24.993,0.53,-0.95,-0.42,1.17
25.003,0.63,-1.17,-0.57,1.45
25.013,0.71,-1.34,-0.70,1.67
25.023,0.75,-1.43,-0.80,1.80
25.033,0.77,-1.51,-0.88,1.91
25.043,0.78,-1.69,-0.84,2.05
25.053,0.80,-1.87,-0.77,2.18
25.063,0.93,-2.05,-0.74,2.37
25.073,1.09,-2.14,-0.73,2.51
25.083,1.25,-2.14,-0.78,2.60
25.093,1.40,-2.06,-0.86,2.64
25.103,1.54,-1.84,-0.71,2.50
25.113,1.80,-1.56,-0.15,2.39
25.123,2.30,-1.40,0.55,2.74
25.133,2.60,-0.77,1.59,3.14
25.143,2.13,0.73,2.44,3.32
25.153,0.88,2.52,1.84,3.24
25.163,-0.99,4.24,0.59,4.40
25.173,-2.02,4.48,-0.39,4.93
25.183,-2.11,3.76,-0.63,4.36
25.193,-2.10,3.16,-0.45,3.82
25.203,-1.83,2.72,-0.57,3.33
25.212,-1.51,2.32,-0.57,2.82
25.223,-0.85,1.47,-0.43,1.75
25.233,0.19,1.11,-0.30,1.17
25.243,1.44,1.61,-0.71,2.27
25.253,2.66,2.03,-1.57,3.70
25.263,3.82,2.08,-2.65,5.09
25.273,4.59,2.14,-3.62,6.22
25.282,4.44,2.35,-3.38,6.05
25.293,3.29,3.04,-1.24,4.65
25.303,1.75,3.95,1.40,4.54
25.312,0.82,4.64,2.70,5.43
25.323,0.25,5.35,2.32,5.84
25.332,-0.25,5.87,1.23,6.01
25.343,-0.59,5.83,0.46,5.88
25.353,-0.68,4.83,0.28,4.89
25.363,-0.24,2.92,0.33,2.95
25.373,0.38,1.15,0.40,1.27
25.383,0.57,-0.15,0.37,0.70
25.392,0.54,-1.36,-0.01,1.47
25.402,0.54,-2.35,-0.38,2.44
25.412,0.49,-3.14,-0.55,3.23
25.422,0.38,-3.81,-0.63,3.88
25.432,0.15,-4.28,-0.72,4.34
25.443,-0.13,-4.54,-0.80,4.61
25.452,-0.51,-4.63,-0.83,4.73
25.462,-1.00,-4.64,-0.81,4.81
25.472,-1.52,-4.54,-0.69,4.84
25.482,-1.89,-4.32,-0.56,4.75
25.492,-2.07,-3.95,-0.36,4.48
25.502,-1.99,-3.38,-0.09,3.92
25.512,-1.85,-2.76,0.29,3.33
25.522,-1.77,-2.12,0.69,2.84
25.532,-1.72,-1.42,0.97,2.43
25.542,-1.59,-0.72,1.11,2.06
25.552,-1.30,-0.11,1.08,1.69
25.562,-0.92,0.32,1.12,1.48
25.572,-0.63,0.56,1.23,1.49
25.582,-0.54,0.78,1.18,1.51
25.592,-0.62,1.05,0.91,1.52
25.602,-0.74,1.29,0.54,1.58
25.612,-0.78,1.31,0.19,1.54
25.622,-0.64,1.08,0.06,1.26
25.632,-0.46,0.70,0.12,0.85
25.642,-0.36,0.28,0.19,0.50
25.652,-0.28,-0.25,0.17,0.41
25.662,-0.20,-0.60,0.01,0.64
25.672,-0.12,-0.73,-0.12,0.75
25.682,-0.12,-0.76,-0.17,0.79
25.692,-0.18,-0.79,-0.24,0.84
25.702,-0.24,-0.77,-0.27,0.85
25.712,-0.25,-0.77,-0.19,0.83
25.722,-0.28,-0.76,-0.05,0.81
25.732,-0.27,-0.72,0.13,0.78
25.742,-0.23,-0.64,0.34,0.76
25.752,-0.17,-0.59,0.45,0.76
25.762,-0.08,-0.63,0.50,0.81
25.772,0.03,-0.77,0.47,0.91
25.782,0.14,-0.94,0.33,1.01
25.792,0.21,-1.13,0.12,1.16
25.802,0.26,-1.36,-0.21,1.40
25.812,0.21,-1.56,-0.51,1.65
25.822,0.10,-1.59,-0.66,1.73
25.832,-0.12,-1.52,-0.70,1.68
25.842,-0.42,-1.35,-0.68,1.57
25.852,-0.68,-1.06,-0.68,1.44
25.862,-0.90,-0.79,-0.68,1.37
25.872,-1.05,-0.46,-0.73,1.36
25.882,-1.05,-0.08,-0.74,1.29
25.892,-0.93,0.19,-0.71,1.18
25.902,-0.77,0.25,-0.60,1.01
25.912,-0.66,0.07,-0.61,0.90
25.921,-0.58,-0.22,-0.75,0.97
25.932,-0.54,-0.52,-0.86,1.14
25.942,-0.42,-0.85,-0.94,1.33
25.952,-0.16,-1.12,-1.04,1.54
25.962,0.09,-1.26,-1.21,1.75
25.972,0.26,-1.32,-1.47,2.00
25.981,0.34,-1.36,-1.79,2.27
25.992,0.34,-1.32,-2.07,2.48
26.002,0.21,-1.22,-2.29,2.61
26.012,-0.11,-0.96,-2.25,2.45
26.022,-0.57,-0.51,-1.89,2.04
26.031,-0.74,0.07,-1.27,1.47
26.041,-0.36,0.89,-0.54,1.10
26.051,0.59,2.28,-0.16,2.36
26.061,2.03,4.21,-0.30,4.68
26.071,3.61,5.83,-0.40,6.86
26.081,4.44,6.57,0.50,7.94
26.091,3.11,6.29,2.14,7.33
26.101,0.01,6.03,2.57,6.55
26.112,-2.96,6.55,1.69,7.38
26.121,-4.93,8.05,0.36,9.45
26.131,-5.75,10.15,-0.48,11.67
26.141,-5.97,11.53,-0.52,12.99
26.152,-5.91,10.58,-0.43,12.13
26.161,-5.05,6.73,-0.64,8.43
26.171,-3.94,3.75,-1.05,5.54
26.181,-3.26,2.76,-1.09,4.41
26.191,-2.63,2.25,-0.86,3.57
26.201,-2.03,1.59,-0.55,2.64
26.211,-1.38,0.72,-0.38,1.60
26.222,-0.68,-0.26,-0.40,0.83
26.231,-0.01,-1.35,-0.51,1.44
26.241,0.71,-2.60,-0.54,2.75
26.251,1.44,-3.73,-0.52,4.03
26.261,2.07,-4.53,-0.37,5.00
26.271,2.72,-5.10,-0.30,5.79
26.281,3.35,-5.55,-0.39,6.49
26.291,3.85,-5.98,-0.49,7.13
26.301,4.13,-6.36,-0.59,7.61
26.311,4.21,-6.73,-0.72,7.97
26.321,4.06,-6.99,-0.92,8.14
26.331,3.70,-6.81,-1.22,7.84
26.341,3.20,-6.06,-1.45,7.00
26.351,2.73,-5.14,-1.50,6.01
26.361,2.29,-4.19,-1.41,4.98
26.371,1.83,-3.01,-1.24,3.73
26.381,1.31,-1.53,-0.96,2.23
26.391,0.63,0.19,-0.62,0.91
26.401,-0.08,2.22,-0.47,2.27
26.411,-0.64,4.74,-0.59,4.82
26.421,-1.18,6.81,-0.14,6.91
26.431,-1.83,6.51,1.08,6.85
26.441,-1.77,3.63,2.25,4.62
26.451,-0.86,0.15,2.86,2.99
26.461,-0.15,-2.12,2.92,3.61
26.471,0.43,-3.20,2.45,4.05
26.481,0.66,-3.03,1.84,3.61
26.491,0.28,-2.01,1.14,2.33
26.501,-0.47,-0.99,0.44,1.19
26.511,-1.09,-0.30,-0.04,1.13
26.521,-1.45,0.18,-0.12,1.46
26.531,-1.56,0.63,0.20,1.69
26.541,-1.38,0.93,0.67,1.79
26.551,-1.08,0.85,1.10,1.76
26.561,-0.78,0.11,1.26,1.49
26.571,-0.59,-1.19,0.99,1.66
26.581,-0.54,-2.38,0.61,2.51
26.591,-0.51,-3.08,0.17,3.13
26.601,-0.50,-3.21,-0.15,3.25
26.611,-0.39,-2.85,-0.36,2.90
26.621,-0.11,-2.40,-0.54,2.46
26.630,0.27,-2.06,-0.57,2.15
26.641,0.66,-1.85,-0.45,2.02
26.651,1.03,-1.67,-0.40,2.01
26.660,1.37,-1.40,-0.31,1.98
26.671,1.63,-1.01,0.00,1.92
26.680,1.80,-0.47,0.31,1.89
26.691,1.85,0.11,0.48,1.91
26.700,1.79,0.55,0.50,1.94
26.710,1.66,0.78,0.55,1.92
26.721,1.43,0.89,0.57,1.77
26.730,1.14,0.90,0.49,1.53
26.740,0.84,0.70,0.40,1.16
26.750,0.59,0.20,0.31,0.69
26.760,0.35,-0.39,0.21,0.56
26.770,0.19,-0.84,0.17,0.88
26.781,0.13,-1.13,0.13,1.15
26.790,0.16,-1.27,0.07,1.28
26.800,0.30,-1.40,-0.13,1.44
26.810,0.56,-1.59,-0.36,1.73
26.820,0.89,-1.74,-0.57,2.04
26.830,1.22,-1.81,-0.73,2.30
26.840,1.46,-1.69,-0.83,2.39
26.850,1.60,-1.54,-0.97,2.42
26.860,1.58,-1.39,-1.08,2.37
26.870,1.45,-1.11,-1.13,2.15
26.880,1.28,-0.74,-1.15,1.87
26.890,1.20,-0.39,-1.19,1.74
26.900,1.20,0.05,-0.86,1.47
26.910,1.31,0.48,-0.04,1.40
26.920,1.87,0.46,0.49,1.99
26.930,2.13,1.78,1.49,3.15
26.940,1.57,5.15,2.13,5.79
26.950,-0.22,8.07,1.26,8.17
26.960,-2.55,9.19,-0.44,9.55
26.970,-4.11,9.44,-1.59,10.41
26.980,-5.04,9.03,-1.52,10.45
26.990,-5.02,8.39,-0.82,9.81
27.000,-3.08,5.71,0.11,6.49
27.010,-0.19,3.29,1.13,3.48
27.020,1.70,3.24,1.38,3.91
27.030,2.92,3.28,0.48,4.42
27.040,3.61,2.93,-1.00,4.75
27.050,3.66,2.11,-2.56,4.94
27.060,2.80,0.89,-2.87,4.11
27.070,1.30,0.33,-1.93,2.35
27.080,0.02,0.64,-0.61,0.88
27.090,-0.75,-0.12,0.37,0.84
27.100,-1.11,-0.90,0.82,1.65
27.110,-1.28,-1.25,0.93,2.02
27.120,-1.38,-1.46,0.94,2.21
27.130,-1.51,-1.79,0.96,2.53
27.140,-1.73,-2.26,1.04,3.03
27.150,-2.09,-2.96,1.04,3.77
27.160,-2.60,-3.81,0.86,4.70
27.170,-3.23,-4.55,0.60,5.61
27.180,-3.71,-4.94,0.33,6.19
27.190,-3.82,-4.97,0.13,6.27
27.200,-3.41,-4.76,0.02,5.85
27.210,-2.72,-4.32,0.04,5.11
27.220,-2.08,-3.81,0.06,4.34
27.230,-1.55,-3.28,-0.05,3.63
27.240,-1.10,-2.68,-0.36,2.92
27.250,-0.61,-2.05,-0.78,2.27
27.260,-0.15,-1.38,-0.98,1.70
27.270,0.06,-0.79,-0.84,1.15
27.280,0.48,-0.28,-0.81,0.98
27.289,0.94,-0.25,-0.48,1.08
27.300,1.39,-0.63,-0.11,1.53
27.309,1.90,-1.18,-0.30,2.26
27.320,2.37,-1.61,-0.66,2.94
27.330,2.43,-2.05,-0.61,3.23
27.340,2.16,-2.37,-0.68,3.28
27.350,1.47,-2.45,-0.54,2.91
27.360,0.43,-2.46,0.28,2.51
27.370,-0.26,-2.20,0.80,2.35
27.380,-0.86,-1.58,1.47,2.33
27.390,-1.52,-0.76,1.56,2.30
27.400,-2.09,-0.01,0.94,2.29
27.410,-2.48,0.67,0.47,2.61
27.419,-2.45,1.10,0.47,2.72
27.430,-2.05,0.95,0.68,2.36
27.440,-1.63,0.34,0.82,1.86
27.450,-1.46,-0.18,0.90,1.73
27.459,-1.42,-0.48,0.89,1.74
27.469,-1.37,-0.66,0.68,1.67
27.479,-1.24,-0.63,0.32,1.43
27.489,-1.07,-0.42,-0.11,1.15
27.499,-0.82,-0.11,-0.49,0.96
27.509,-0.49,0.22,-0.66,0.85
27.519,-0.16,0.48,-0.57,0.76
27.529,0.09,0.64,-0.23,0.69
27.539,0.22,0.69,0.19,0.75
27.549,-0.21,0.82,-0.65,1.07
27.559,-0.30,0.43,-0.15,0.54
27.569,0.09,-0.13,0.92,0.94
27.579,0.23,-0.40,1.17,1.26
27.589,0.42,-0.56,1.38,1.55
27.599,-0.02,0.04,0.57,0.57
27.609,-0.90,0.52,-0.53,1.17
27.619,-1.13,0.17,-0.73,1.35
27.629,-1.21,-0.16,-0.96,1.55
27.639,-1.42,-0.35,-1.40,2.03
27.649,-1.54,-0.36,-1.35,2.08
27.659,-1.63,-0.37,-1.16,2.04
27.669,-1.67,-0.48,-0.95,1.98
27.679,-1.62,-0.96,-1.07,2.17
27.689,-1.50,-1.38,-1.33,2.44
27.699,-1.24,-1.35,-1.14,2.16
27.709,-1.14,-0.89,-0.71,1.61
27.719,-1.34,-0.55,-0.86,1.69
27.729,-1.43,-0.64,-1.19,1.96
27.739,-1.34,-0.77,-1.29,2.02
27.749,-1.27,-0.69,-1.29,1.94
27.759,-1.29,-0.46,-1.13,1.78
27.769,-1.31,-0.29,-0.94,1.64
27.779,-1.28,-0.25,-0.83,1.55
27.789,-1.20,-0.30,-0.81,1.48
27.799,-1.10,-0.30,-0.84,1.42
27.809,-1.00,-0.21,-0.90,1.36
27.819,-0.94,-0.09,-0.93,1.32
27.829,-1.00,0.03,-0.96,1.39
27.839,-1.20,-0.00,-1.16,1.67
27.849,-1.33,-0.24,-1.45,1.98
27.859,-1.30,-0.65,-1.75,2.28
27.869,-1.11,-1.20,-1.70,2.36
27.879,-0.81,-1.70,-1.34,2.31
27.889,-0.69,-1.62,-1.01,2.03
27.899,-0.73,-0.64,-1.14,1.49
27.909,-0.98,0.31,-1.13,1.53
27.919,-1.39,0.79,-0.88,1.83
27.929,-1.63,1.09,-0.64,2.06
27.939,-1.54,1.48,-0.49,2.19
27.949,-1.18,1.80,-0.30,2.18
27.959,-0.68,1.96,0.01,2.07
27.969,-0.22,2.09,0.36,2.14
27.978,-0.10,2.20,0.89,2.38
27.989,-0.15,2.05,0.85,2.23
27.999,0.10,1.79,0.84,1.98
28.009,0.37,1.53,1.03,1.88
28.019,0.90,1.02,1.06,1.73
28.029,1.58,0.38,0.68,1.76
28.039,2.18,-0.24,-0.16,2.20
28.049,2.27,-0.75,-0.88,2.55
28.059,1.99,-0.95,-1.23,2.53
28.069,1.64,-1.29,-1.19,2.40
28.079,1.40,-1.76,-1.12,2.51
28.088,0.87,-1.53,-0.73,1.90
28.099,0.20,-0.83,0.01,0.86
28.109,0.17,-0.61,0.66,0.91
28.118,0.68,-0.46,0.59,1.01
28.129,-0.15,0.50,1.00,1.13
28.138,-1.14,1.25,1.34,2.16
28.149,-1.45,1.55,0.37,2.15
28.159,-1.41,1.51,0.25,2.08
28.168,-1.13,1.53,0.74,2.04
28.178,-0.70,1.42,0.61,1.70
28.188,0.47,0.49,-0.08,0.68
28.198,1.50,-0.04,-0.76,1.68
28.208,2.09,-0.15,-0.71,2.21
28.218,2.55,-0.03,-0.25,2.56
28.228,2.99,0.20,-0.08,3.00
28.238,3.07,0.65,-0.24,3.15
28.248,2.98,0.78,-0.33,3.10
28.258,2.66,0.65,-0.29,2.75
28.268,2.56,0.39,-0.01,2.59
28.278,2.53,0.09,0.23,2.54
28.288,2.38,-0.18,0.30,2.40
28.298,2.16,-0.49,0.24,2.23
28.308,1.89,-0.68,0.06,2.01
28.318,1.67,-0.99,-0.47,1.99
28.328,1.46,-1.17,-0.99,2.12
28.338,1.25,-1.21,-1.57,2.34
28.348,1.11,-1.31,-2.25,2.83
28.358,0.90,-1.20,-2.36,2.79
28.368,0.24,-0.70,-1.73,1.88
28.378,-0.37,-0.34,-1.36,1.45
28.388,-0.41,-0.36,-1.31,1.42
28.398,-0.03,-0.44,-1.25,1.32
28.408,0.55,-0.49,-0.79,1.08
28.418,1.40,-0.45,0.20,1.48
28.428,1.56,0.27,0.55,1.68
28.438,1.52,1.15,0.88,2.10
28.448,1.77,1.38,0.94,2.43
28.458,2.07,1.23,0.63,2.49
28.468,2.76,0.70,0.95,3.01
28.478,2.96,0.48,1.43,3.32
28.488,2.15,1.20,1.69,2.99
28.498,0.93,1.93,2.14,3.03
28.508,1.13,2.36,1.13,2.85
28.518,0.45,4.62,0.15,4.65
28.528,0.49,5.62,1.45,5.82
28.538,0.20,5.34,1.63,5.59
28.548,-0.26,4.25,2.15,4.77
28.558,-0.06,2.63,2.22,3.44
28.568,0.40,1.33,1.07,1.75
28.578,0.51,0.81,0.22,0.99
28.588,0.85,0.82,1.24,1.71
28.598,2.03,0.43,1.96,2.85
28.608,2.66,0.18,2.03,3.36
28.618,2.84,0.53,1.61,3.31
28.628,2.69,1.67,0.82,3.27
28.638,2.23,2.82,0.20,3.59
28.648,1.68,3.11,-0.31,3.55
28.658,1.33,2.56,-0.44,2.92
28.668,1.23,1.21,-0.57,1.82
28.678,1.09,0.49,-1.94,2.28
28.688,1.61,0.03,-1.31,2.07
28.698,1.31,0.53,0.25,1.43
28.708,1.46,0.66,1.50,2.19
28.718,1.52,0.62,2.04,2.62
28.728,1.58,0.56,1.82,2.48
28.737,1.30,0.56,0.87,1.66
28.748,0.56,1.14,0.36,1.32
28.758,-0.07,1.62,-0.31,1.65
28.768,-0.61,1.56,-0.55,1.77
28.778,-0.88,1.16,-0.41,1.51
28.787,-0.82,0.56,-0.59,1.16
28.798,-0.67,0.36,-0.05,0.76
28.808,-0.16,-0.11,0.17,0.25
28.817,0.26,-0.85,0.83,1.22
28.827,0.36,-1.61,1.83,2.47
28.837,0.90,-2.14,2.04,3.09
28.847,1.40,-2.10,1.63,3.00
28.857,0.66,-2.07,1.76,2.79
28.867,-0.83,-2.52,3.61,4.48
28.877,-0.10,-2.93,3.69,4.71
28.887,0.99,-2.96,0.78,3.21
28.897,1.04,-2.59,0.79,2.90
28.907,1.19,-2.72,0.44,3.00
28.917,1.23,-2.55,0.40,2.86
28.927,1.24,-1.80,0.96,2.39
28.937,1.60,-1.21,1.35,2.42
28.947,2.05,-1.19,2.25,3.26
28.957,2.47,-1.49,2.72,3.96
28.967,2.45,-1.76,3.01,4.27
28.977,2.36,-1.91,2.95,4.23
28.987,2.28,-1.49,2.79,3.90
28.997,2.20,-0.76,2.31,3.28
29.007,2.04,-0.03,2.41,3.16
29.017,1.87,-0.02,2.64,3.24
29.027,1.78,-0.28,2.60,3.17
29.037,1.61,-0.74,2.79,3.31
29.047,1.57,-1.38,2.73,3.44
29.057,1.72,-1.90,3.18,4.08
29.067,1.91,-2.23,3.77,4.78
29.077,2.22,-1.98,4.29,5.22
29.087,2.51,-1.43,4.64,5.47
29.097,2.65,-0.94,4.71,5.49
29.107,2.58,-0.59,4.11,4.89
29.117,2.55,-0.30,3.94,4.70
29.127,2.60,0.01,3.81,4.61
29.137,2.69,0.23,3.27,4.24
29.147,2.67,0.35,3.44,4.37
29.157,2.87,0.02,3.69,4.67
29.167,3.03,-0.48,3.63,4.75
29.177,2.92,-0.83,3.67,4.76
29.187,3.10,-1.22,3.67,4.96
29.197,3.40,-1.16,3.91,5.31
29.207,3.85,-0.74,4.07,5.65
29.217,4.45,-0.15,3.92,5.93
29.227,4.85,0.49,3.55,6.03
29.237,5.06,1.07,3.26,6.11
29.247,5.36,1.42,2.96,6.28
29.257,5.70,1.75,2.95,6.65
29.267,6.20,1.71,2.81,7.02
29.277,6.56,1.50,2.65,7.23
29.286,6.83,1.46,2.30,7.35
29.297,7.06,1.72,1.87,7.50
29.307,7.19,1.85,1.33,7.54
29.317,7.05,1.70,0.80,7.29
29.326,6.77,1.31,0.55,6.91
29.337,6.46,0.75,0.19,6.51
29.347,6.19,0.33,-0.14,6.20
29.357,6.15,0.10,-0.26,6.15
29.367,6.11,-0.07,-0.59,6.14
29.377,5.94,-0.02,-0.90,6.01
29.387,5.70,0.15,-1.47,5.89
29.397,5.07,0.41,-1.84,5.41
29.407,4.62,0.48,-2.19,5.14
29.416,4.95,0.57,-3.09,5.86
29.427,4.84,1.15,-3.04,5.83
29.437,4.73,1.52,-2.93,5.77
29.447,4.79,1.66,-3.35,6.07
29.457,4.47,1.83,-3.57,6.01
29.467,4.13,1.79,-4.18,6.14
29.476,3.48,1.77,-4.51,5.97
29.486,2.79,1.66,-4.37,5.45
29.496,2.28,1.42,-3.99,4.81
29.506,2.17,1.00,-3.33,4.10
29.516,2.32,0.77,-3.39,4.18
29.527,2.18,0.78,-3.45,4.15
29.536,1.53,1.00,-3.53,3.97
29.546,0.90,1.10,-3.91,4.16
29.556,0.30,1.03,-4.36,4.49
29.566,-0.19,0.79,-4.66,4.73
29.576,-0.48,0.43,-4.61,4.66
29.586,-0.43,-0.07,-4.28,4.30
29.596,0.16,-0.63,-3.88,3.94
29.606,2.74,-0.72,-0.26,2.85
29.616,9.08,3.12,6.69,11.70
29.626,5.04,1.87,8.45,10.02
29.636,0.93,-5.21,-1.23,5.43
29.646,-0.56,-7.05,-4.47,8.36
29.656,-0.16,-5.19,-3.27,6.14
29.666,1.09,-2.79,-1.96,3.58
29.676,2.52,-0.92,-1.75,3.21
29.686,2.91,0.00,-1.30,3.19
29.696,1.63,-0.63,0.53,1.83
29.706,-0.13,-1.78,0.85,1.98
29.716,-0.20,-1.55,0.89,1.80
29.726,-0.23,-0.03,0.26,0.35
29.736,-0.67,1.86,0.21,1.99
29.746,-0.54,3.01,-0.07,3.06
29.756,-1.15,3.04,0.05,3.25
29.766,-1.86,2.42,-0.06,3.05
29.776,-2.27,2.39,0.35,3.32
29.786,-2.18,2.91,0.46,3.66
29.796,-1.47,2.33,0.57,2.81
29.806,-1.17,0.72,0.87,1.62
29.816,-0.36,-0.44,0.29,0.64
29.826,0.02,-1.11,0.13,1.12
29.836,-0.15,-1.04,0.55,1.18
29.846,-0.13,-1.00,0.12,1.02
29.856,0.25,-0.79,-0.29,0.88
29.866,0.58,-0.61,-0.86,1.20
29.876,0.76,-0.54,-1.15,1.48
29.886,0.82,-0.62,-0.93,1.39
29.896,0.70,-0.82,-0.60,1.23
29.906,0.48,-0.97,-0.24,1.11
29.916,0.40,-1.15,0.22,1.24
29.926,-0.00,-1.63,-0.03,1.64
29.936,-0.38,-2.44,-0.99,2.66
29.946,0.64,-1.81,-0.23,1.93
29.956,1.42,-0.92,0.86,1.89
29.966,1.72,-1.53,1.27,2.63
29.976,1.49,-1.81,1.75,2.93
29.986,1.23,-1.52,2.12,2.88
29.996,1.42,-1.30,2.44,3.11
30.006,1.29,-1.31,2.20,2.87
30.016,1.18,-1.20,1.69,2.39
30.026,1.41,-1.23,1.28,2.27
30.036,1.46,-2.08,0.98,2.72
30.046,1.14,-2.42,0.58,2.74
30.056,1.35,-2.00,0.53,2.47
30.066,1.45,-1.72,0.13,2.25
30.076,1.36,-1.38,-0.44,1.98
30.086,2.20,-0.18,-0.18,2.22
30.096,2.22,0.55,1.53,2.75
30.106,-0.21,-0.90,5.74,5.82
30.115,0.68,-1.25,4.36,4.59
30.125,0.34,0.15,2.09,2.12
30.135,-0.74,1.00,-1.39,1.86
30.146,-1.14,0.84,-2.92,3.25
30.155,-1.50,0.47,-3.42,3.77
30.165,-1.19,0.27,-3.06,3.30
30.175,-0.61,-0.20,-1.61,1.74
30.185,-0.24,-1.00,-0.40,1.10
30.197,0.14,-1.10,-0.16,1.11
30.205,0.52,-0.68,0.11,0.86
30.215,0.69,-0.59,0.10,0.91
30.225,0.64,-0.91,-0.11,1.12
30.235,0.39,-1.03,0.39,1.17
30.245,0.09,-0.82,0.98,1.28
30.255,0.01,-0.43,0.81,0.92
30.265,0.08,-0.14,0.60,0.62
30.275,0.24,-0.14,0.73,0.78
30.285,0.46,-0.20,0.82,0.96
30.295,0.62,-0.17,1.03,1.21
30.305,0.55,-0.27,1.12,1.28
30.315,0.48,-0.37,1.15,1.30
30.325,0.40,-0.41,1.12,1.26
30.335,0.29,-0.34,1.08,1.17
30.345,0.25,-0.10,0.94,0.98
30.355,0.21,0.04,0.65,0.68
30.365,0.07,0.00,0.53,0.54
30.375,0.01,-0.01,0.29,0.29
30.385,0.04,-0.15,-0.21,0.26
30.395,0.08,-0.25,-0.32,0.41
30.405,0.23,-0.22,-0.60,0.68
30.415,0.33,-0.66,-1.74,1.89
30.425,-0.32,-0.43,0.67,0.86
30.435,-0.91,0.43,2.30,2.51
30.445,-0.90,0.70,2.02,2.32
30.455,-0.82,0.31,1.66,1.88
30.466,-0.47,0.26,1.65,1.73
30.475,-0.08,0.33,0.62,0.70
30.485,0.39,-0.10,-1.12,1.19
30.495,0.92,-0.76,-1.53,1.94
30.505,1.23,-1.05,-0.72,1.77
