time,ax,ay,az,atotal
0.000,0.51,-0.19,-0.88,1.04
0.010,0.19,0.23,-0.66,0.73
0.020,0.07,0.29,0.10,0.32
0.030,0.21,-0.06,0.27,0.35
0.040,0.19,-0.32,0.09,0.38
0.050,0.25,-0.50,0.11,0.57
0.060,0.29,-0.79,0.29,0.89
0.070,0.10,-1.12,0.58,1.27
0.080,-0.01,-1.64,0.41,1.70
0.090,0.06,-1.97,0.28,1.99
0.100,0.08,-2.24,0.24,2.25
0.110,-0.05,-2.49,0.18,2.50
0.120,-0.30,-2.70,0.91,2.86
0.130,-0.67,-3.36,1.53,3.75
0.140,-1.13,-3.85,2.12,4.54
0.150,-1.34,-3.96,2.82,5.04
0.160,-1.34,-3.99,3.13,5.25
0.170,-1.41,-3.92,3.35,5.34
0.180,-1.52,-4.04,3.86,5.79
0.190,-1.88,-4.50,4.32,6.51
0.200,-2.69,-4.71,5.01,7.38
0.210,-3.86,-4.24,6.04,8.33
0.220,-4.73,-3.34,6.43,8.66
0.230,-5.21,-2.97,5.45,8.10
0.240,-5.28,-2.73,4.50,7.46
0.250,-4.51,-2.15,4.28,6.58
0.260,-3.45,-1.67,3.91,5.48
0.270,-2.63,-1.17,2.66,3.92
0.280,-1.77,-0.35,1.52,2.36
0.290,-0.58,-1.94,2.20,3.00
0.300,-1.97,-2.11,1.05,3.07
0.310,-1.33,-1.62,0.12,2.10
0.319,-0.14,-4.24,1.27,4.43
0.329,3.18,-6.94,4.28,8.75
0.340,1.24,-3.34,2.07,4.12
0.349,-1.14,-2.85,-5.55,6.34
0.359,0.18,-3.99,-5.93,7.15
0.369,-0.11,-3.36,-5.36,6.33
0.379,-2.04,-2.54,-6.57,7.33
0.389,-4.44,-1.13,-23.21,23.65
0.400,-1.86,1.07,-18.23,18.35
0.409,0.79,3.36,-6.24,7.13
0.420,2.86,3.86,-4.98,6.92
0.429,4.13,4.24,-5.75,8.25
0.439,2.71,3.53,-4.03,6.00
0.450,-0.35,1.72,2.06,2.71
0.459,-0.24,-0.03,2.87,2.88
0.470,1.70,-0.67,0.51,1.90
0.479,1.96,0.12,-0.31,1.99
0.490,0.66,1.00,-0.47,1.29
0.500,0.87,0.35,-0.66,1.14
0.509,0.86,-0.87,-0.87,1.50
0.519,1.40,-0.39,-1.13,1.84
0.529,3.29,1.25,0.02,3.52
0.539,1.91,-0.13,1.51,2.43
0.549,2.35,-2.71,5.40,6.48
0.559,4.04,-5.06,6.51,9.18
0.569,2.81,-3.55,8.03,9.21
0.579,1.82,-2.18,9.20,9.63
0.589,-0.62,-0.65,8.40,8.44
0.599,-2.48,0.46,7.66,8.07
0.609,-4.38,2.88,8.04,9.60
0.619,-6.67,6.19,8.33,12.33
0.629,-7.57,7.10,8.50,13.42
0.639,-7.76,7.42,7.32,13.00
0.649,-7.73,7.79,6.04,12.53
0.659,-7.48,8.56,5.72,12.73
0.669,-6.55,9.05,6.20,12.77
0.679,-4.97,8.77,5.55,11.51
0.689,-3.61,8.22,4.05,9.85
0.699,-3.13,7.61,2.32,8.55
0.709,-3.00,7.18,0.30,7.79
0.719,-2.42,7.11,-1.43,7.64
0.729,-0.87,7.10,-1.84,7.38
0.739,1.03,7.13,-2.03,7.48
0.749,2.86,7.22,-3.04,8.33
0.759,4.59,7.53,-4.18,9.76
0.769,5.39,7.97,-5.25,10.96
0.779,5.43,8.49,-5.89,11.68
0.789,5.09,8.90,-6.06,11.91
0.799,4.75,8.35,-6.39,11.53
0.809,4.73,7.28,-7.78,11.66
0.819,4.66,6.09,-8.49,11.44
0.829,4.55,5.08,-8.29,10.73
0.839,4.56,4.27,-8.04,10.18
0.849,4.51,3.67,-7.75,9.69
0.859,4.40,2.85,-7.40,9.07
0.869,4.49,1.93,-6.73,8.32
0.879,4.46,1.25,-6.29,7.81
0.889,4.45,0.80,-5.42,7.06
0.899,4.36,0.77,-3.96,5.94
0.909,4.33,0.65,-3.38,5.53
0.919,4.38,0.35,-2.96,5.30
0.929,4.21,-0.00,-2.40,4.84
0.939,4.15,-0.87,-2.03,4.70
0.949,4.09,-1.68,-1.53,4.68
0.959,4.33,-2.14,-1.88,5.18
0.969,4.35,-2.37,-1.76,5.25
0.979,4.34,-2.04,-1.91,5.16
0.989,4.52,-1.40,-2.82,5.51
0.998,4.82,-0.91,-3.20,5.86
1.009,5.10,-0.46,-3.25,6.07
1.018,5.28,-0.56,-3.06,6.12
1.029,5.35,-1.02,-2.33,5.93
1.039,5.38,-0.96,-1.46,5.66
1.049,5.45,-0.62,-1.22,5.62
1.059,5.42,-0.81,-1.05,5.58
1.068,5.12,-1.26,-0.60,5.30
1.079,4.70,-1.72,-0.31,5.01
1.089,4.29,-1.71,-0.30,4.63
1.099,3.87,-1.36,-0.49,4.13
1.108,3.60,-1.09,-0.49,3.79
1.118,3.28,-1.24,-0.36,3.52
1.128,2.81,-1.47,-0.14,3.17
1.138,2.41,-1.73,0.13,2.97
1.148,1.99,-1.88,0.30,2.75
1.158,1.97,-1.34,1.05,2.60
1.168,2.19,-0.49,1.46,2.68
1.178,1.37,-0.79,0.42,1.63
1.188,0.71,-0.86,0.54,1.24
1.198,0.13,0.32,0.30,0.46
1.208,-0.44,1.31,-0.30,1.41
1.218,-0.90,1.32,-0.23,1.62
1.228,-1.40,0.59,0.34,1.56
1.238,-1.77,-0.15,0.80,1.95
1.248,-1.89,0.12,0.73,2.03
1.258,-1.93,0.75,0.09,2.08
1.268,-1.97,0.94,-0.65,2.28
1.278,-1.96,0.95,0.42,2.23
1.288,-1.15,1.15,0.31,1.65
1.298,-0.58,0.67,-0.22,0.91
1.308,-0.33,0.82,-0.15,0.90
1.318,-0.13,0.68,-0.50,0.86
1.328,-0.09,0.60,-0.63,0.87
1.338,-0.11,1.10,-0.64,1.27
1.348,-0.03,1.37,-0.94,1.67
1.358,0.32,1.59,-0.82,1.82
1.368,0.58,1.72,-0.56,1.89
1.378,2.06,4.40,-0.68,4.91
1.388,4.04,6.05,-1.72,7.48
1.398,2.22,-1.10,-1.53,2.91
1.408,1.91,-0.27,2.40,3.07
1.418,2.11,-0.84,1.54,2.74
1.428,2.27,-0.48,1.33,2.67
1.438,2.42,-0.30,-0.05,2.44
1.448,2.12,-0.67,-0.16,2.23
1.458,1.79,-1.00,0.34,2.09
1.468,1.69,-1.49,0.16,2.26
1.478,1.52,-1.61,0.08,2.21
1.488,1.26,-1.61,0.19,2.05
1.498,0.87,-1.79,0.19,2.00
1.508,0.49,-1.93,-0.19,2.00
1.518,-0.02,-1.95,-0.28,1.97
1.528,-0.36,-2.22,-0.62,2.33
1.538,-0.71,-2.28,-0.49,2.44
1.548,-0.98,-2.27,-0.29,2.49
1.558,-1.24,-2.29,-0.31,2.63
1.568,-1.58,-2.35,-0.15,2.84
1.578,-2.21,-2.52,0.30,3.36
1.588,-2.65,-2.60,0.75,3.78
1.598,-2.74,-2.32,0.91,3.71
1.608,-2.83,-1.80,1.22,3.57
1.617,-2.75,-1.75,1.38,3.54
1.628,-2.47,-1.73,1.63,3.43
1.638,-2.29,-1.41,1.82,3.25
1.648,-2.18,-0.71,1.54,2.76
1.658,-2.01,1.01,0.72,2.36
1.668,-1.68,1.26,0.40,2.14
1.678,-1.48,0.64,1.59,2.26
1.687,-1.28,2.70,0.15,2.99
1.697,-1.26,2.21,-0.80,2.66
1.708,-1.63,1.06,0.65,2.05
1.718,-1.27,0.49,1.10,1.75
1.728,-0.87,-0.87,1.50,1.94
1.738,-0.17,-0.38,1.30,1.37
1.748,-0.02,-0.33,-0.19,0.39
1.757,-0.56,-1.57,0.08,1.67
1.767,-1.27,-1.96,0.22,2.35
1.777,-2.07,-1.10,-0.81,2.48
1.788,-2.64,-0.54,-2.11,3.42
1.797,-2.85,-0.40,-2.87,4.07
1.808,-2.83,-1.01,-3.53,4.64
1.817,-2.75,-2.05,-3.45,4.86
1.827,-1.08,0.46,-3.05,3.27
1.837,0.01,-2.37,-1.67,2.90
1.848,1.92,-4.11,0.75,4.59
1.857,2.96,-1.77,-1.00,3.59
1.867,3.49,0.09,-1.63,3.85
1.877,4.31,1.11,-0.99,4.55
1.887,4.01,2.66,0.34,4.83
1.897,5.82,5.55,-0.13,8.04
1.907,8.01,8.00,1.02,11.37
1.917,6.90,6.44,2.37,9.73
1.927,3.31,3.02,2.80,5.28
1.937,0.81,0.95,2.30,2.61
1.947,0.47,0.63,1.03,1.30
1.957,1.15,0.25,0.45,1.26
1.967,1.80,-1.09,0.46,2.15
1.977,3.03,-2.89,1.08,4.32
1.987,4.26,-4.43,1.56,6.34
1.997,4.16,-5.18,1.16,6.74
2.007,2.37,-5.28,0.80,5.84
2.017,0.93,-2.95,-0.15,3.10
2.027,-1.10,-1.23,-2.90,3.34
2.037,-1.96,-1.09,-6.34,6.73
2.047,-2.27,-3.04,-11.42,12.03
2.057,-1.54,-5.74,-15.16,16.28
2.067,-1.53,-5.71,-7.85,9.83
2.077,0.80,-2.96,3.14,4.39
2.087,1.60,-1.24,9.94,10.15
2.097,-0.37,-2.15,5.82,6.22
2.107,-1.47,0.39,-0.27,1.55
2.117,-3.20,4.10,-0.32,5.21
2.127,-3.28,7.01,3.40,8.45
2.137,-3.28,9.70,2.83,10.62
2.147,-3.27,9.46,0.47,10.02
2.157,-2.99,6.25,0.71,6.97
2.167,-2.68,2.32,0.64,3.60
2.177,-1.33,0.74,-1.04,1.84
2.187,0.42,0.33,-1.12,1.24
2.197,0.69,-0.26,1.23,1.44
2.207,0.69,-0.51,1.19,1.47
2.217,-0.31,-0.47,1.58,1.68
2.227,-1.12,0.42,0.62,1.35
2.237,-1.21,1.17,0.86,1.88
2.247,-0.14,0.71,1.81,1.95
2.257,10.51,-4.25,1.70,11.46
2.267,11.79,0.51,-7.28,13.86
2.277,0.95,6.66,-9.11,11.32
2.287,0.47,0.36,-0.40,0.71
2.296,0.97,-0.25,1.79,2.05
2.306,1.07,0.39,0.25,1.16
2.316,1.39,-0.38,-0.62,1.57
2.326,1.04,-0.42,-0.86,1.41
2.336,0.75,-0.42,-1.21,1.49
2.347,0.74,-0.38,-1.11,1.39
2.357,0.80,-0.24,-0.97,1.28
2.367,1.01,0.01,-1.00,1.42
2.376,0.68,-0.83,-0.90,1.40
2.387,0.50,-0.96,-0.83,1.37
2.397,0.66,-1.07,-0.98,1.59
2.406,0.69,-1.28,-1.15,1.85
2.416,0.39,-1.31,-0.86,1.62
2.426,-0.03,-1.27,-0.35,1.32
2.436,-0.53,-0.68,-0.00,0.86
2.446,-0.54,-0.09,0.15,0.56
2.456,-0.23,0.08,-0.27,0.37
2.466,0.01,0.23,-0.76,0.80
2.476,0.55,0.47,-1.76,1.90
2.486,0.96,0.53,-2.57,2.79
2.496,1.43,-0.16,-2.60,2.97
2.506,2.28,-1.77,-2.64,3.92
2.516,3.79,-3.84,-2.82,6.09
2.526,4.15,-3.78,-0.73,5.66
2.536,3.46,-2.32,1.18,4.33
2.546,2.43,-0.64,1.03,2.72
2.556,0.60,2.01,-0.63,2.19
2.566,-1.08,4.51,-2.23,5.15
2.576,-1.39,4.61,-3.26,5.81
2.586,-1.29,0.90,-0.92,1.82
2.596,-4.62,-19.24,2.81,19.99
2.606,-5.81,-25.48,-2.93,26.30
2.616,3.86,6.36,-2.68,7.91
2.626,5.41,15.14,-0.17,16.08
2.636,4.37,7.02,-2.33,8.59
2.646,2.71,1.89,-2.58,4.19
2.656,2.90,5.20,-1.87,6.24
2.666,2.94,5.33,-1.60,6.29
2.676,2.76,0.97,-1.49,3.28
2.686,2.37,-2.34,-1.23,3.55
2.696,1.57,-2.03,-1.54,3.00
2.706,1.22,-1.97,-2.01,3.06
2.716,1.00,-3.02,-2.62,4.12
2.726,1.04,-3.96,-2.99,5.07
2.736,1.17,-5.07,-3.44,6.24
2.746,1.71,-4.42,-4.22,6.34
2.756,2.04,-3.71,-4.18,5.95
2.766,1.91,-4.22,-4.90,6.74
2.776,1.33,-2.37,-4.34,5.12
2.786,1.51,0.96,-1.77,2.51
2.796,2.48,2.00,-2.82,4.26
2.806,2.25,3.87,-3.09,5.44
2.816,0.55,7.55,-0.22,7.57
2.826,-0.44,8.10,2.08,8.37
2.836,-1.28,9.79,4.96,11.05
2.846,-1.80,9.54,6.87,11.90
2.856,-1.64,8.68,1.95,9.04
2.866,-2.46,7.12,1.27,7.64
2.876,-2.17,3.75,2.80,5.16
2.886,-1.39,2.24,2.12,3.38
2.896,-1.65,2.08,0.13,2.66
2.906,-3.17,3.23,-3.21,5.55
2.916,-3.92,1.45,-2.50,4.88
2.926,-4.14,-0.78,-1.79,4.58
2.935,-3.86,-3.60,-0.81,5.34
2.946,-4.01,-5.02,0.11,6.42
2.956,-3.46,-4.10,0.14,5.37
2.966,-2.81,-1.83,-0.58,3.41
2.976,-2.23,-1.01,-1.74,3.00
2.986,-1.42,-1.38,-2.57,3.25
2.995,-0.35,-0.61,-3.06,3.14
3.005,0.43,-0.53,-2.91,2.98
3.015,0.92,-1.28,-2.50,2.95
3.025,1.54,-2.31,-2.17,3.52
3.035,2.19,-3.27,-2.17,4.50
3.045,2.67,-4.03,-2.40,5.40
3.055,2.80,-4.55,-2.61,5.94
3.066,2.50,-4.79,-2.63,6.01
3.075,1.93,-4.04,-2.47,5.11
3.085,1.33,-2.97,-2.14,3.89
3.095,0.88,-2.28,-1.78,3.02
3.105,0.54,-1.48,-1.56,2.21
3.115,0.15,-0.41,-1.33,1.40
3.125,-0.25,0.80,-1.10,1.38
3.135,-0.59,1.68,-0.95,2.02
3.145,-0.86,2.05,-0.89,2.39
3.155,-0.97,2.10,-0.86,2.47
3.165,-0.90,2.00,-0.87,2.36
3.175,-0.74,1.87,-0.82,2.17
3.185,-0.55,1.61,-0.77,1.87
3.195,-0.27,1.17,-1.02,1.58
3.205,0.04,0.62,-1.56,1.68
3.215,0.28,0.12,-2.19,2.21
3.225,0.48,-0.24,-2.85,2.90
3.235,0.57,-0.32,-3.38,3.44
3.245,0.79,0.25,-3.62,3.71
3.255,1.31,1.11,-3.71,4.09
3.265,2.05,1.96,-3.96,4.87
3.275,2.57,2.35,-4.20,5.46
3.285,3.00,2.39,-4.36,5.81
3.295,3.40,2.12,-4.37,5.93
3.305,3.57,1.73,-4.01,5.64
3.315,3.47,1.34,-3.31,4.98
3.325,3.16,0.82,-2.35,4.03
3.335,2.82,0.12,-1.20,3.07
3.345,2.58,-0.62,-0.27,2.67
3.355,2.31,-1.23,0.57,2.67
3.365,1.95,-1.53,1.15,2.74
3.375,1.46,-1.10,1.60,2.43
3.385,1.00,-0.13,1.58,1.87
3.395,0.36,0.44,1.96,2.04
3.405,-0.55,0.47,3.12,3.20
3.415,-1.70,0.26,4.54,4.86
3.425,-2.85,0.58,5.16,5.92
3.435,-4.01,1.50,5.23,6.76
3.445,-5.30,3.01,5.06,7.92
3.455,-6.26,5.79,4.83,9.80
3.465,-6.17,8.27,4.05,11.08
3.475,-4.64,7.80,2.14,9.32
3.485,-1.61,3.65,1.03,4.12
3.494,0.12,-0.57,1.22,1.35
3.505,0.26,-2.94,1.59,3.36
3.514,-0.11,-4.20,1.45,4.44
3.525,0.13,-4.03,1.01,4.15
3.535,1.23,-2.92,0.60,3.23
3.545,1.80,-1.88,1.22,2.87
3.555,2.26,-1.11,1.09,2.74
3.564,2.93,-0.93,0.08,3.07
3.575,3.32,-1.17,-0.26,3.53
3.585,3.03,-2.03,-0.49,3.68
3.595,2.80,-2.84,-0.92,4.09
3.604,2.37,-3.15,-0.57,3.99
3.615,0.98,-3.23,-0.09,3.38
3.625,-0.08,-1.74,-0.25,1.76
3.635,-0.37,-0.27,-0.86,0.98
3.645,0.11,-0.36,-1.09,1.16
3.655,1.01,-0.66,-0.38,1.26
3.664,1.71,-0.44,0.39,1.81
3.675,1.96,-0.04,0.64,2.06
3.684,2.05,0.40,0.74,2.22
3.694,1.87,0.58,0.86,2.14
3.704,1.70,0.08,0.66,1.83
3.714,1.96,-0.07,0.07,1.96
3.725,2.49,0.73,-0.76,2.71
3.734,2.93,1.95,-1.42,3.80
3.744,3.35,3.20,-1.77,4.96
3.754,3.90,3.21,-1.97,5.42
3.765,3.90,2.00,-2.42,5.00
3.774,2.66,1.06,-3.17,4.27
3.784,0.88,-0.63,-3.43,3.60
3.794,-0.43,-1.79,-2.80,3.35
3.804,-0.82,-2.24,-2.04,3.14
3.815,-0.95,-1.33,-0.56,1.73
3.824,-1.39,2.05,2.23,3.33
3.834,-1.69,7.02,3.99,8.25
3.844,-2.49,10.82,5.28,12.30
3.855,-3.86,12.93,6.03,14.78
3.864,-6.19,11.63,4.98,14.08
3.874,-7.20,4.83,3.38,9.30
3.884,-5.15,-1.37,2.75,6.00
3.894,-2.95,-3.38,2.23,5.00
3.904,-2.17,-4.39,2.01,5.29
3.914,-1.88,-4.35,1.45,4.96
3.924,-1.40,-2.61,0.43,2.99
3.934,-0.69,-0.75,-0.09,1.02
3.944,0.07,-0.00,-0.27,0.28
3.954,0.28,0.23,-0.46,0.58
3.964,0.12,0.09,-1.36,1.37
3.974,0.02,-0.60,-2.22,2.30
3.984,-0.03,-1.26,-2.43,2.74
3.994,-0.17,-1.91,-2.40,3.07
4.004,-0.30,-2.38,-2.19,3.25
4.014,-0.63,-2.57,-1.81,3.21
4.024,-1.09,-2.92,-1.51,3.46
4.034,-0.93,-2.99,-1.36,3.41
4.044,-0.54,-2.93,-1.15,3.19
4.054,-0.11,-2.72,-1.28,3.01
4.064,0.41,-2.58,-1.54,3.03
4.074,0.63,-2.42,-1.66,3.00
4.084,0.58,-1.95,-1.59,2.58
4.094,0.21,-1.58,-1.36,2.10
4.104,-0.12,-0.71,-0.99,1.22
4.114,-0.42,0.34,-0.72,0.90
4.124,-0.79,1.28,-0.75,1.69
4.134,-0.95,1.95,-0.73,2.29
4.144,-0.51,2.07,-0.60,2.21
4.154,0.20,1.69,-0.58,1.80
4.164,0.75,1.05,-0.92,1.59
4.174,1.19,0.39,-1.71,2.12
4.184,1.24,-0.40,-2.63,2.94
4.194,1.05,-1.02,-3.83,4.11
4.204,0.88,-1.45,-5.11,5.39
4.214,1.15,-1.74,-5.97,6.32
4.224,1.73,-1.45,-5.78,6.21
4.234,2.47,-0.59,-5.04,5.65
4.244,3.29,0.20,-4.51,5.59
4.254,3.96,0.55,-4.10,5.73
4.264,4.22,0.30,-3.64,5.58
4.274,4.18,-0.14,-3.04,5.17
4.284,3.84,-0.49,-2.16,4.44
4.294,3.17,-0.86,-0.98,3.42
4.303,2.70,-1.46,-0.04,3.07
4.314,2.50,-1.97,0.35,3.20
4.324,2.19,-1.71,0.57,2.83
4.333,1.76,-0.48,0.68,1.94
4.343,1.28,1.52,0.72,2.11
4.353,0.39,3.60,1.90,4.09
4.363,-0.98,5.58,4.13,7.01
4.373,-2.41,6.37,5.06,8.48
4.383,-3.63,6.17,5.29,8.90
4.393,-4.45,5.35,5.12,8.64
4.403,-5.51,5.73,4.62,9.20
4.413,-5.88,7.94,3.94,10.64
4.423,-4.17,7.56,3.28,9.23
4.433,-1.83,4.21,2.74,5.35
4.443,-0.38,1.27,2.74,3.04
4.453,0.07,-1.27,3.19,3.44
4.463,0.33,-2.72,3.17,4.19
4.473,1.00,-3.02,2.35,3.95
4.483,1.33,-3.74,1.92,4.40
4.493,2.02,-3.44,1.75,4.35
4.503,3.04,-2.16,1.78,4.14
4.513,3.98,-1.62,1.53,4.56
4.523,4.56,-1.39,0.34,4.78
4.533,4.67,-1.70,-1.04,5.07
4.543,3.75,-2.69,-1.85,4.97
4.553,2.02,-3.76,-1.54,4.53
4.563,0.21,-4.49,-1.35,4.69
4.573,-1.16,-3.71,-1.29,4.10
4.583,-2.28,-2.28,-1.11,3.41
4.593,-2.50,-1.16,-1.18,3.00
4.603,-2.26,-1.25,-1.07,2.80
4.613,-1.78,-1.28,-0.45,2.24
4.623,-1.34,-0.87,0.61,1.70
4.633,-1.11,-0.59,1.23,1.77
4.643,-0.92,-0.45,1.25,1.61
4.653,-0.90,-0.07,1.13,1.45
4.663,-1.13,0.14,0.93,1.47
4.673,-0.84,-0.14,-0.09,0.86
4.683,-0.31,-0.48,-1.22,1.34
4.693,0.35,0.13,-1.88,1.92
4.703,1.20,1.53,-1.39,2.39
4.713,1.83,3.08,-0.11,3.59
4.723,2.04,4.21,-0.21,4.68
4.733,2.40,2.93,-2.00,4.28
4.743,1.64,0.58,-3.28,3.72
4.753,0.29,-1.23,-2.59,2.88
4.763,-0.40,-2.79,-2.04,3.48
4.773,-0.66,-2.61,-1.70,3.19
4.783,-0.87,0.08,0.23,0.91
4.793,-0.97,4.81,2.70,5.60
4.803,-1.39,10.49,5.48,11.92
4.813,-2.31,14.30,6.16,15.74
4.823,-4.49,14.93,5.47,16.52
4.833,-7.15,10.12,4.45,13.17
4.843,-6.76,0.80,3.74,7.77
4.853,-4.19,-3.28,2.87,6.05
4.863,-2.62,-4.49,2.01,5.58
4.872,-2.57,-4.83,1.58,5.69
4.883,-2.51,-3.44,0.76,4.32
4.892,-1.83,-1.29,0.17,2.24
4.902,-0.54,0.24,0.00,0.59
4.912,0.41,0.55,-0.06,0.68
4.923,0.26,0.27,-0.57,0.69
4.933,-0.02,-0.16,-1.56,1.57
4.943,0.34,-0.53,-2.48,2.56
4.952,0.90,-1.18,-2.72,3.09
4.962,0.83,-2.21,-2.51,3.45
4.973,0.58,-3.11,-2.26,3.89
4.982,0.43,-3.52,-2.12,4.14
4.993,0.42,-3.44,-1.71,3.87
5.002,0.47,-3.01,-1.09,3.24
5.012,0.50,-2.44,-1.01,2.69
5.022,0.66,-1.77,-1.34,2.32
5.033,0.58,-1.61,-1.58,2.33
5.042,0.37,-1.93,-1.55,2.51
5.052,0.34,-1.95,-1.39,2.42
5.062,0.39,-1.34,-0.94,1.68
5.072,-0.14,-1.06,-0.81,1.34
5.082,-0.84,-0.65,-0.90,1.39
5.092,-1.23,0.08,-0.97,1.57
5.102,-1.08,0.65,-0.95,1.57
5.112,-0.49,0.98,-0.95,1.45
5.122,0.14,0.83,-1.18,1.45
5.132,0.70,0.24,-1.79,1.93
5.142,1.14,-0.51,-2.80,3.07
5.152,1.37,-0.77,-4.00,4.29
5.162,1.65,-0.81,-5.00,5.32
5.172,2.15,-0.71,-5.60,6.04
5.182,2.80,-0.42,-5.65,6.32
5.192,3.67,0.11,-5.35,6.49
5.202,4.45,0.76,-4.92,6.68
5.212,4.88,1.32,-4.22,6.59
5.222,4.72,1.45,-3.46,6.03
5.232,4.05,1.12,-2.72,5.01
5.242,3.26,1.09,-1.96,3.96
5.252,2.61,1.21,-1.11,3.09
5.262,2.29,0.87,-0.54,2.51
5.272,2.18,-0.10,0.20,2.19
5.282,1.92,-0.94,0.65,2.24
5.292,1.38,-1.04,0.48,1.79
5.302,0.77,-0.50,-0.30,0.97
5.312,-0.07,0.47,-0.16,0.50
5.322,-1.39,1.50,1.55,2.57
5.332,-3.07,2.64,3.97,5.66
5.342,-4.81,3.41,5.20,7.86
5.352,-6.17,4.36,5.74,9.49
5.362,-6.83,5.32,5.56,10.29
5.372,-7.17,7.44,5.25,11.59
5.382,-6.61,9.60,5.05,12.70
5.392,-4.87,9.08,4.31,11.17
5.402,-2.22,5.22,3.89,6.88
5.412,-0.29,1.35,4.02,4.25
5.422,0.78,-1.36,4.18,4.47
5.432,1.70,-1.98,3.83,4.64
5.442,2.53,-0.95,2.91,3.97
5.452,2.75,-0.72,2.09,3.53
5.462,2.83,-1.13,0.97,3.20
5.472,3.09,-1.24,0.81,3.43
5.482,3.63,-2.69,0.83,4.59
5.492,3.90,-3.90,0.22,5.52
5.502,3.86,-4.12,-0.83,5.71
5.512,2.99,-5.00,-1.50,6.02
5.521,1.41,-6.23,-1.30,6.52
5.532,0.07,-6.53,-0.80,6.58
5.541,-0.74,-5.51,-0.56,5.59
5.551,-1.24,-3.99,-0.35,4.20
5.562,-1.21,-2.77,-0.32,3.04
5.572,-0.95,-2.33,-0.28,2.53
5.582,-0.63,-1.81,0.39,1.95
5.591,-0.42,-1.09,1.08,1.59
5.601,-0.28,-0.82,0.72,1.13
5.611,-0.36,-0.59,-0.09,0.69
5.621,-0.44,-0.24,-0.41,0.64
5.631,-0.08,-0.41,-0.58,0.72
5.641,0.58,-0.76,-1.49,1.76
5.651,1.31,-0.30,-2.65,2.97
5.661,2.16,1.15,-2.87,3.77
5.671,2.91,2.54,-1.51,4.14
5.681,2.67,3.61,0.14,4.49
5.691,1.87,3.50,0.27,3.98
5.701,1.25,1.71,-1.19,2.43
5.711,0.62,-0.29,-2.91,2.99
5.721,-0.15,-1.16,-2.25,2.54
5.731,-0.79,-1.05,-2.03,2.42
5.741,-1.20,0.76,-1.33,1.94
5.751,-1.20,4.54,1.12,4.83
5.761,-0.79,10.26,3.66,10.92
5.771,-0.81,14.76,4.29,15.39
5.782,-2.76,15.60,5.12,16.65
5.791,-6.50,11.53,4.90,14.11
5.801,-8.60,2.25,3.94,9.72
5.811,-7.65,-3.42,4.49,9.51
5.821,-5.07,-4.98,4.13,8.22
5.831,-3.62,-4.98,3.08,6.89
5.841,-3.25,-3.70,1.94,5.29
5.851,-2.75,-1.63,0.78,3.29
5.861,-2.01,-0.01,-0.01,2.01
5.871,-0.95,0.88,-0.45,1.37
5.881,-0.42,1.03,-0.57,1.25
5.891,-0.58,0.03,-0.97,1.13
5.901,-0.93,-1.07,-1.47,2.04
5.911,-0.94,-0.81,-1.41,1.88
5.921,-0.48,-0.18,-1.30,1.39
5.931,0.12,0.04,-1.30,1.30
5.941,0.23,-0.66,-0.89,1.13
5.951,0.07,-1.57,-0.40,1.62
5.961,-0.31,-1.97,-0.34,2.02
5.971,-0.47,-1.62,-0.26,1.71
5.981,-0.26,-1.29,-0.40,1.37
5.991,-0.15,-1.94,-0.89,2.14
6.001,-0.28,-2.74,-0.95,2.91
6.011,-0.65,-3.05,-0.74,3.21
6.021,-0.91,-2.83,-0.62,3.03
6.031,-0.90,-2.31,-0.60,2.55
6.041,-0.88,-1.91,-0.78,2.25
6.051,-0.97,-1.46,-1.18,2.11
6.061,-0.95,-0.47,-1.52,1.85
6.071,-0.77,0.39,-1.65,1.86
6.081,-0.58,0.74,-1.57,1.83
6.091,-0.36,0.68,-1.31,1.53
6.101,-0.11,0.23,-1.28,1.30
6.111,0.15,-0.30,-1.68,1.71
6.121,0.20,-0.77,-2.19,2.33
6.131,0.13,-1.17,-2.72,2.96
6.140,0.23,-1.31,-3.28,3.54
6.150,0.64,-1.43,-3.94,4.24
6.161,1.29,-1.34,-4.51,4.88
6.171,2.08,-0.80,-4.57,5.08
6.180,2.88,-0.17,-4.14,5.05
6.191,3.61,0.07,-3.65,5.13
6.201,3.93,0.31,-3.24,5.10
6.211,3.90,0.75,-2.95,4.95
6.220,3.91,1.36,-2.72,4.95
6.230,4.15,1.83,-2.15,5.02
6.241,4.51,1.87,-1.53,5.11
6.250,4.82,1.20,-0.91,5.05
6.260,4.49,0.55,0.05,4.52
6.270,3.29,0.48,0.77,3.41
6.280,1.81,0.74,1.10,2.24
6.290,0.45,1.03,1.68,2.02
6.300,-0.66,1.16,2.49,2.82
6.310,-1.81,0.83,3.33,3.88
6.321,-3.21,1.52,3.76,5.17
6.330,-4.49,3.18,3.56,6.55
6.340,-5.26,5.00,3.01,7.86
6.350,-5.54,6.95,2.61,9.26
6.360,-4.95,7.96,2.41,9.68
6.370,-2.73,6.48,2.29,7.40
6.380,-0.35,3.45,2.21,4.11
6.390,1.20,0.92,2.64,3.04
6.400,2.03,-0.86,3.07,3.79
6.410,2.12,-1.76,2.76,3.90
6.420,2.13,-2.13,2.12,3.68
6.430,2.47,-2.31,1.68,3.78
6.440,3.04,-2.04,1.36,3.91
6.450,3.64,-1.76,1.21,4.23
6.460,3.89,-2.14,0.77,4.51
6.470,4.08,-2.11,-0.43,4.61
6.480,3.71,-2.00,-1.32,4.42
6.490,2.86,-2.58,-1.67,4.20
6.500,1.53,-3.42,-1.66,4.10
6.510,-0.08,-4.02,-1.20,4.20
6.520,-1.14,-3.02,-0.63,3.29
6.530,-2.03,-2.03,-0.28,2.88
6.540,-2.18,-1.36,-0.39,2.60
6.550,-1.99,-1.30,-0.26,2.39
6.560,-1.68,-1.56,0.17,2.30
6.570,-1.36,-1.79,0.52,2.31
6.580,-1.33,-1.66,0.64,2.22
6.590,-1.76,-0.96,0.76,2.14
6.600,-1.79,-0.71,0.28,1.94
6.610,-1.18,-1.54,-0.30,1.96
6.620,-0.57,-2.26,-0.34,2.36
6.630,-0.15,-2.17,-1.08,2.43
6.640,0.08,-0.84,-1.44,1.67
6.650,0.59,1.46,-0.96,1.85
6.660,1.31,3.87,-0.89,4.18
6.670,1.78,4.69,-1.71,5.30
6.680,1.28,3.19,-2.26,4.11
6.690,-0.25,0.97,-2.21,2.43
6.700,-1.58,-1.36,-2.67,3.39
6.710,-2.23,-2.43,-2.57,4.18
6.720,-2.28,-1.42,-0.85,2.82
6.730,-1.70,0.23,0.07,1.71
6.740,-1.44,3.08,1.24,3.62
6.750,-1.19,7.38,2.80,7.98
6.760,-0.45,11.22,1.63,11.35
6.771,0.15,12.39,0.80,12.42
6.780,-0.38,9.32,3.13,9.84
6.790,-1.61,1.98,4.80,5.44
6.800,-2.68,-1.62,4.75,5.69
6.810,-2.22,-2.07,4.15,5.14
6.819,-1.07,-2.00,3.67,4.31
6.830,-0.63,-0.87,2.98,3.17
6.840,-1.00,0.70,1.59,2.01
6.850,-1.67,1.32,0.35,2.15
6.860,-2.51,1.15,-0.18,2.76
6.869,-3.52,0.40,-0.01,3.54
6.880,-4.12,-0.44,0.25,4.15
6.890,-4.00,-1.18,0.24,4.18
6.899,-3.41,-1.05,0.01,3.57
6.910,-2.90,-0.71,-0.45,3.02
6.919,-2.48,-0.65,-0.72,2.67
6.930,-2.14,-0.80,-0.81,2.42
6.939,-1.74,-1.06,-0.92,2.23
6.949,-1.42,-1.53,-0.94,2.29
6.959,-1.18,-2.04,-0.87,2.51
6.969,-0.82,-2.44,-0.92,2.73
6.980,-0.36,-2.62,-1.11,2.87
6.989,-0.03,-2.66,-1.23,2.93
6.999,0.18,-2.47,-1.28,2.79
7.009,0.27,-1.92,-1.20,2.28
7.019,0.05,-1.30,-0.51,1.40
7.029,-0.50,-0.78,0.12,0.93
7.039,-0.92,-0.07,-0.05,0.92
7.049,-1.03,0.34,-0.38,1.14
7.059,-0.72,0.52,-0.71,1.14
7.069,-0.22,0.43,-0.95,1.06
7.079,0.32,0.22,-1.20,1.26
7.089,0.89,0.22,-1.48,1.74
7.099,1.41,0.26,-1.84,2.33
7.109,1.83,0.22,-2.32,2.97
7.119,2.06,-0.04,-2.71,3.40
7.129,2.10,-0.32,-3.00,3.67
7.139,1.96,-0.53,-3.16,3.75
7.149,1.73,-0.77,-3.39,3.88
7.159,1.61,-1.00,-3.72,4.18
7.169,1.91,-1.28,-4.08,4.68
7.179,2.48,-1.43,-4.22,5.11
7.189,3.22,-1.19,-4.16,5.39
7.199,4.03,-0.74,-3.96,5.70
7.209,4.70,-0.29,-3.80,6.05
7.219,5.00,-0.05,-3.71,6.23
7.229,4.80,-0.02,-3.29,5.82
7.239,4.29,0.17,-2.66,5.05
7.249,3.58,0.63,-2.10,4.20
7.259,2.97,0.93,-1.52,3.46
7.269,2.42,0.72,-0.97,2.71
7.279,1.71,0.52,-0.34,1.82
7.289,1.05,0.90,0.63,1.52
7.299,0.48,1.44,1.21,1.94
7.309,-0.68,1.95,2.51,3.25
7.318,-2.12,1.91,3.70,4.67
7.329,-3.29,1.27,4.55,5.76
7.339,-4.33,1.14,5.11,6.79
7.349,-5.22,2.60,4.56,7.41
7.359,-5.66,4.93,4.12,8.56
7.369,-5.95,6.85,4.10,9.96
7.379,-5.53,7.95,3.71,10.37
7.389,-3.73,6.91,3.24,8.50
7.399,-1.72,4.32,3.27,5.68
7.409,-0.43,2.27,3.80,4.44
7.419,0.25,0.55,4.18,4.22
7.429,0.64,-0.46,3.78,3.86
7.439,1.35,-0.24,3.08,3.37
7.448,2.27,-0.23,2.67,3.51
7.459,2.78,-1.07,1.54,3.35
7.469,2.85,-2.09,0.75,3.61
7.478,2.78,-2.47,0.82,3.81
7.489,2.87,-2.88,0.91,4.16
7.498,2.77,-3.32,0.02,4.33
7.509,2.56,-3.93,-0.57,4.73
7.518,2.12,-4.03,-0.56,4.59
7.528,1.15,-4.30,-0.68,4.50
7.538,0.25,-4.02,-0.64,4.07
7.549,-0.22,-3.03,-0.33,3.06
7.558,-0.22,-1.95,-0.05,1.97
7.569,-0.00,-1.08,0.02,1.08
7.578,0.31,-0.25,0.30,0.50
7.588,0.62,-0.09,0.76,0.98
7.598,0.85,-0.30,1.00,1.35
7.608,0.86,-0.51,0.83,1.30
7.618,0.55,-0.73,0.69,1.15
7.628,0.19,-0.70,0.64,0.97
7.638,0.35,-0.97,0.40,1.10
7.648,0.72,-1.41,-0.13,1.59
7.658,1.02,-1.28,-1.09,1.97
7.668,1.28,-0.71,-2.06,2.52
7.678,1.47,0.69,-1.96,2.54
7.688,1.90,2.49,-1.44,3.45
7.698,2.67,3.14,-1.47,4.37
7.708,3.17,2.67,-2.20,4.70
7.718,2.78,2.04,-3.05,4.60
7.728,1.21,0.85,-3.06,3.40
7.738,-0.36,-0.79,-3.22,3.34
7.748,-1.35,-0.96,-2.53,3.02
7.758,-1.90,0.81,-0.78,2.21
7.768,-2.08,3.51,1.12,4.23
7.778,-2.09,6.96,2.90,7.82
7.788,-2.04,9.97,3.31,10.70
7.799,-2.15,11.53,3.12,12.14
7.808,-3.46,9.16,4.02,10.59
7.818,-4.99,1.84,4.03,6.68
7.828,-5.32,-2.68,3.89,7.11
7.838,-4.22,-4.29,3.96,7.20
7.848,-2.97,-5.01,3.48,6.78
7.858,-2.32,-4.48,2.77,5.76
7.868,-1.74,-2.22,1.85,3.37
7.878,-0.96,0.06,0.48,1.08
7.888,-0.21,1.20,-0.73,1.42
7.898,0.26,1.26,-1.18,1.75
7.908,0.17,0.29,-1.04,1.10
7.918,-0.34,-1.09,-0.55,1.27
7.928,-0.73,-1.32,-0.16,1.51
7.938,-0.41,-0.54,-0.02,0.68
7.948,0.10,-0.12,0.02,0.16
7.958,0.43,-0.11,-0.25,0.50
7.968,0.63,-0.35,-0.56,0.91
7.978,0.40,-0.78,-0.84,1.21
7.988,0.24,-0.74,-1.06,1.31
7.998,0.26,-0.72,-1.13,1.36
8.008,0.31,-1.05,-1.17,1.60
8.018,0.41,-1.72,-1.27,2.17
8.028,0.41,-2.46,-1.25,2.79
8.038,0.09,-3.00,-0.98,3.16
8.048,-0.32,-2.93,-0.64,3.02
8.058,-0.88,-2.58,-0.73,2.82
8.068,-1.51,-1.79,-0.66,2.43
8.077,-2.37,-1.07,-0.71,2.70
8.088,-2.85,-0.35,-0.95,3.03
8.098,-2.62,0.12,-1.14,2.86
8.108,-1.79,0.33,-1.16,2.16
8.118,-0.93,0.21,-1.09,1.45
8.128,-0.20,-0.12,-1.12,1.14
8.137,0.44,-0.35,-1.20,1.33
8.148,0.84,-0.41,-1.45,1.72
8.158,0.86,-0.50,-1.76,2.02
8.168,0.65,-0.62,-2.14,2.32
8.177,0.50,-0.77,-2.61,2.77
8.187,0.65,-0.94,-3.27,3.46
8.198,1.10,-1.03,-3.96,4.24
8.208,1.75,-0.80,-4.23,4.64
8.217,2.33,-0.22,-3.79,4.45
8.227,2.87,0.65,-3.27,4.40
8.237,3.27,1.08,-2.90,4.50
8.247,3.51,0.72,-2.52,4.38
8.257,3.59,0.25,-2.14,4.19
8.267,3.44,0.08,-1.84,3.90
8.277,3.00,0.10,-1.83,3.51
8.287,2.48,0.04,-1.85,3.09
8.297,2.15,-0.08,-1.48,2.61
8.307,1.74,0.21,-0.60,1.85
8.317,0.86,1.32,0.41,1.63
8.327,0.01,2.80,1.01,2.98
8.337,-0.86,3.26,1.76,3.80
8.347,-1.74,2.14,2.73,3.88
8.357,-2.54,1.17,4.27,5.10
8.367,-3.56,1.26,4.78,6.09
8.377,-3.85,1.59,3.81,5.64
8.387,-3.83,2.43,3.02,5.45
8.397,-4.25,4.60,3.44,7.15
8.407,-4.20,6.54,3.46,8.51
8.417,-2.62,5.99,2.83,7.12
8.427,-0.75,4.05,2.56,4.85
8.437,0.65,2.20,2.70,3.54
8.447,1.78,1.04,2.81,3.48
8.457,2.54,0.52,2.71,3.75
8.467,2.87,-0.08,2.52,3.82
8.477,2.98,-0.54,2.08,3.67
8.487,2.97,-1.35,1.24,3.49
8.497,3.05,-1.78,0.99,3.67
8.507,3.55,-2.24,0.61,4.24
8.517,4.00,-1.78,-0.41,4.39
8.527,3.85,-2.66,-1.43,4.89
8.537,3.36,-3.28,-1.81,5.03
8.547,2.01,-3.89,-1.71,4.70
8.557,0.53,-4.23,-1.69,4.59
8.567,-0.56,-3.18,-1.52,3.57
8.577,-1.11,-1.65,-1.14,2.29
8.587,-1.10,-0.77,-0.87,1.60
8.597,-0.80,-0.35,-0.42,0.97
8.607,-0.48,-0.18,0.38,0.64
8.617,-0.18,0.04,1.18,1.19
8.627,-0.07,0.14,1.49,1.50
8.637,-0.06,-0.17,1.35,1.36
8.647,-0.15,-0.46,1.19,1.28
8.657,-0.07,-0.73,0.98,1.22
8.667,0.13,-1.26,0.81,1.50
8.677,0.32,-1.54,0.62,1.70
8.687,0.56,-1.68,-0.21,1.79
8.697,0.64,-1.45,-1.39,2.11
8.707,1.00,-0.39,-2.27,2.51
8.717,1.46,0.76,-2.27,2.81
8.727,1.58,1.96,-2.42,3.49
8.737,1.32,2.37,-3.21,4.21
8.747,0.61,1.03,-3.88,4.06
8.757,-0.50,-1.38,-3.88,4.15
8.766,-1.29,-2.57,-3.21,4.31
8.777,-1.39,-2.30,-2.36,3.58
8.786,-1.47,-0.09,-0.89,1.72
8.797,-1.74,3.86,1.10,4.38
8.807,-1.15,8.84,2.71,9.32
8.816,0.67,14.08,3.03,14.42
8.827,1.83,15.95,2.70,16.28
8.837,0.50,13.27,4.51,14.02
8.846,-2.34,5.11,5.54,7.89
8.856,-3.91,-1.09,4.47,6.04
8.866,-3.51,-3.62,4.06,6.48
8.876,-2.38,-5.17,3.19,6.53
8.886,-1.40,-5.07,2.20,5.70
8.896,-0.66,-3.31,1.39,3.65
8.906,-0.31,-1.49,0.37,1.57
8.916,-0.71,-0.66,-0.47,1.08
8.926,-1.90,-0.72,-0.84,2.20
8.936,-3.16,-0.30,-0.94,3.31
8.946,-3.98,-0.21,-0.79,4.06
8.956,-3.91,-0.74,-0.68,4.04
8.966,-3.06,-0.90,-0.82,3.29
8.976,-2.60,-0.77,-0.53,2.76
8.986,-2.24,-0.61,0.02,2.32
8.996,-1.72,-1.23,0.19,2.12
9.006,-1.25,-1.95,-0.04,2.31
9.016,-1.21,-2.52,-0.04,2.79
9.026,-1.19,-2.58,-0.29,2.85
9.036,-0.59,-2.35,-1.07,2.65
9.046,0.01,-2.56,-1.62,3.03
9.056,0.33,-2.52,-2.00,3.23
9.066,0.44,-2.03,-2.01,2.89
9.076,0.08,-1.44,-1.52,2.10
9.086,-0.44,-0.63,-1.10,1.34
9.096,-0.95,0.24,-0.74,1.23
9.106,-1.28,0.89,-0.69,1.70
9.116,-0.98,1.28,-0.61,1.73
9.126,-0.35,1.34,-0.51,1.48
9.136,0.15,1.09,-0.58,1.25
9.146,0.62,0.58,-0.84,1.20
9.156,1.04,-0.12,-1.17,1.57
9.166,1.39,-0.72,-1.66,2.29
9.176,1.61,-1.02,-2.30,2.99
9.186,1.65,-1.15,-3.11,3.71
9.196,1.73,-1.29,-4.03,4.57
9.206,1.97,-1.51,-4.87,5.47
9.216,2.46,-1.52,-5.33,6.06
9.226,2.91,-1.17,-4.97,5.87
9.236,3.21,-0.34,-3.87,5.04
9.246,3.34,0.57,-2.64,4.30
9.256,3.31,1.22,-1.64,3.89
9.266,3.11,1.67,-1.16,3.72
9.276,2.60,1.86,-0.76,3.28
9.286,1.85,1.75,-0.56,2.61
9.296,1.15,1.16,-0.92,1.87
9.306,0.91,0.26,-1.00,1.38
9.316,0.97,-0.76,-0.64,1.39
9.326,0.99,-1.63,-0.37,1.94
9.335,0.82,-1.86,-0.06,2.03
9.346,0.51,-1.38,0.21,1.49
9.355,0.15,-0.63,0.43,0.78
9.366,-0.46,0.10,1.26,1.34
9.376,-1.24,0.57,2.24,2.63
9.386,-2.08,1.02,3.08,3.86
9.396,-2.96,1.74,3.86,5.17
9.406,-3.26,3.24,3.87,6.01
9.416,-3.29,4.24,3.61,6.47
9.426,-3.39,5.48,3.96,7.56
9.435,-3.01,6.78,4.43,8.64
9.446,-1.67,7.06,4.24,8.41
9.455,0.15,5.63,3.83,6.82
9.465,1.29,2.96,3.84,5.02
9.475,2.16,1.13,3.83,4.54
9.485,2.36,0.17,3.26,4.03
9.495,2.36,-0.78,2.59,3.59
9.505,2.50,-1.57,2.07,3.61
9.515,2.84,-2.36,1.29,3.91
9.525,3.32,-2.70,1.35,4.49
9.535,3.29,-2.87,0.58,4.40
9.545,3.13,-2.66,-0.84,4.19
9.555,2.54,-2.58,-1.52,3.93
9.565,1.87,-3.25,-1.36,3.99
9.575,1.14,-4.29,-0.94,4.54
9.585,0.25,-4.64,-0.49,4.67
9.595,-0.48,-3.62,-0.16,3.66
9.605,-0.83,-2.37,0.01,2.51
9.615,-0.86,-1.59,-0.06,1.80
9.625,-1.00,-0.85,0.16,1.32
9.635,-1.14,0.09,0.53,1.26
9.645,-1.17,0.52,0.73,1.47
9.655,-1.19,0.52,0.72,1.48
9.665,-1.27,0.68,0.62,1.57
9.675,-1.25,0.76,0.42,1.52
9.685,-0.88,0.36,0.31,1.00
9.695,-0.34,-0.22,0.08,0.41
9.705,0.09,-0.15,-0.60,0.63
9.715,0.54,0.31,-1.33,1.47
9.725,1.23,1.25,-1.18,2.12
9.735,2.22,2.22,-0.45,3.17
9.745,3.07,2.76,-0.88,4.22
9.755,3.28,2.83,-2.73,5.12
9.765,2.26,1.88,-3.56,4.62
9.775,0.72,-0.49,-4.14,4.23
9.785,-0.23,-2.30,-3.90,4.54
9.795,-0.29,-2.75,-2.83,3.95
9.805,0.03,-1.77,-1.60,2.39
9.815,0.45,0.90,0.43,1.09
9.825,1.25,3.93,2.00,4.58
9.835,1.75,7.43,3.48,8.39
9.845,1.49,10.46,3.88,11.26
9.856,-0.17,12.25,3.64,12.78
9.865,-3.81,12.07,4.26,13.35
9.875,-7.25,8.37,5.20,12.23
9.885,-7.06,1.40,4.64,8.57
9.895,-4.80,-3.69,3.43,6.96
9.905,-3.58,-5.77,2.08,7.10
9.915,-3.28,-5.51,1.59,6.61
9.925,-2.97,-3.59,1.50,4.90
9.935,-2.31,-1.85,1.04,3.14
9.945,-1.86,-1.23,-0.10,2.23
9.955,-1.56,-0.54,-1.35,2.14
9.965,-1.00,-0.05,-1.90,2.14
9.975,-0.32,-0.42,-2.03,2.09
9.985,0.24,-0.87,-2.01,2.21
9.995,0.25,-1.63,-1.58,2.28
10.005,-0.15,-2.63,-1.07,2.85
10.015,-0.42,-3.22,-0.99,3.40
10.025,-0.93,-3.13,-0.69,3.33
10.035,-1.48,-2.77,-0.29,3.16
10.045,-1.94,-2.49,-0.32,3.17
10.055,-1.96,-1.81,-0.32,2.68
10.065,-1.80,-0.92,-0.30,2.04
10.075,-1.66,-0.31,-0.54,1.77
10.084,-1.65,-0.18,-0.75,1.82
10.094,-1.44,0.17,-0.97,1.75
10.104,-1.22,0.45,-1.15,1.74
10.115,-0.83,0.49,-1.38,1.68
10.124,-0.29,0.53,-1.52,1.63
10.134,0.26,0.51,-1.51,1.62
10.144,0.87,0.20,-1.51,1.76
10.154,1.50,-0.10,-1.68,2.25
10.164,2.09,-0.35,-1.78,2.77
10.175,2.58,-0.60,-1.64,3.12
10.184,2.82,-0.96,-1.53,3.35
10.194,2.70,-1.39,-1.61,3.44
10.204,2.23,-1.64,-1.75,3.28
10.215,1.66,-1.58,-2.11,3.12
10.224,1.29,-1.26,-2.57,3.14
10.234,1.18,-0.86,-3.07,3.40
10.244,1.40,-0.37,-3.43,3.73
10.254,1.84,0.30,-3.36,3.84
10.264,2.25,1.16,-2.91,3.86
10.274,2.52,2.08,-2.42,4.07
10.284,2.77,2.60,-2.15,4.36
10.294,2.99,2.47,-2.03,4.38
10.304,3.19,1.81,-2.18,4.26
10.314,3.01,1.20,-2.43,4.05
10.324,2.56,0.62,-2.48,3.62
10.334,2.25,0.04,-2.43,3.31
10.344,2.23,-0.58,-2.19,3.18
10.354,2.17,-1.23,-1.75,3.05
10.364,1.84,-1.78,-1.16,2.81
10.374,1.33,-1.74,-0.56,2.26
10.384,0.73,-1.09,-0.03,1.31
10.394,0.02,-0.27,0.57,0.63
10.404,-0.76,0.39,1.54,1.76
10.414,-1.52,0.24,2.04,2.55
10.424,-2.48,0.42,2.76,3.74
10.434,-3.41,1.53,3.45,5.09
10.444,-3.82,2.79,3.08,5.65
10.454,-3.80,4.01,2.88,6.23
10.464,-3.90,5.80,3.44,7.79
10.474,-3.56,7.11,3.79,8.81
10.484,-2.04,6.46,3.74,7.74
10.494,-0.33,4.43,3.75,5.81
10.504,0.63,2.09,4.02,4.57
10.514,1.13,0.36,3.93,4.10
10.524,1.36,-0.32,3.22,3.51
10.534,1.48,-1.02,2.58,3.14
10.544,1.93,-1.68,1.80,3.13
10.554,2.14,-2.43,0.99,3.38
10.564,2.47,-3.39,0.77,4.27
10.574,2.98,-2.79,0.97,4.20
10.584,3.00,-2.47,-0.19,3.89
10.594,2.38,-2.19,-1.01,3.39
10.604,1.32,-2.10,-1.40,2.84
10.614,0.33,-2.77,-1.53,3.18
10.624,-0.77,-3.50,-1.13,3.76
10.634,-1.34,-2.41,-0.60,2.82
10.644,-1.61,-1.08,-0.15,1.94
10.654,-1.60,-0.34,0.15,1.64
10.664,-1.24,0.11,0.63,1.40
10.674,-0.85,0.29,1.31,1.58
10.684,-0.60,0.22,1.64,1.76
10.694,-0.71,-0.00,1.58,1.73
10.704,-1.02,-0.15,1.44,1.78
10.713,-1.08,-0.23,1.12,1.57
10.723,-0.66,-0.68,0.68,1.17
10.733,-0.19,-1.21,0.20,1.24
10.743,0.15,-1.57,-0.58,1.68
10.753,0.55,-1.85,-1.57,2.49
10.763,1.08,-1.52,-1.99,2.73
10.774,1.62,0.15,-1.53,2.23
10.783,2.36,1.78,-1.14,3.17
10.794,3.20,2.36,-1.51,4.25
10.803,2.96,2.10,-2.19,4.24
10.814,1.19,0.85,-2.79,3.15
10.823,-0.54,-1.30,-3.55,3.82
10.833,-1.67,-2.46,-2.95,4.19
10.844,-1.77,-2.05,-2.09,3.42
10.853,-1.25,-0.54,-0.91,1.64
10.863,-1.16,2.47,1.11,2.94
10.873,-1.02,6.98,3.51,7.88
10.883,-0.20,12.26,3.41,12.73
10.893,0.84,16.07,1.77,16.19
10.904,-0.64,16.34,3.47,16.72
10.913,-4.76,8.95,6.02,11.79
10.923,-6.12,-0.69,5.48,8.24
10.933,-4.70,-5.22,3.96,8.06
10.943,-2.99,-6.97,2.75,8.07
10.953,-2.32,-6.72,2.36,7.49
10.963,-1.94,-4.26,1.83,5.03
10.973,-1.21,-1.63,0.98,2.25
10.983,-0.58,-0.47,-0.24,0.78
10.993,-0.59,-0.29,-1.32,1.47
11.003,-1.13,-0.33,-1.55,1.95
11.013,-1.44,-0.12,-1.17,1.86
11.023,-1.15,-0.52,-0.69,1.44
11.033,-0.58,-0.57,-0.46,0.93
11.043,0.04,-0.29,-0.29,0.42
11.053,-0.18,-1.08,0.12,1.10
11.063,-0.81,-1.84,0.09,2.02
11.073,-1.15,-1.73,-0.35,2.11
11.083,-1.27,-1.44,-0.43,1.97
11.093,-1.09,-1.13,-0.34,1.61
11.103,-0.65,-0.89,-0.58,1.24
11.113,-0.23,-1.11,-0.97,1.49
11.123,-0.18,-1.40,-0.93,1.69
11.133,-0.41,-1.43,-0.65,1.62
11.143,-0.78,-1.35,-0.50,1.64
11.153,-0.90,-0.98,-0.48,1.41
11.163,-1.20,-0.78,-0.79,1.64
11.173,-1.47,-0.32,-1.12,1.87
11.183,-1.38,0.29,-1.25,1.89
11.193,-1.02,0.52,-1.49,1.88
11.203,-0.44,0.54,-1.56,1.70
11.213,0.31,0.19,-1.44,1.49
11.223,0.93,-0.40,-1.37,1.71
11.233,1.49,-0.96,-1.34,2.22
11.243,1.71,-1.25,-1.37,2.52
11.253,1.58,-1.31,-1.55,2.57
11.263,1.38,-1.30,-2.11,2.84
11.273,1.23,-1.08,-2.82,3.27
11.283,1.24,-0.71,-3.48,3.76
11.293,1.49,-0.31,-3.92,4.20
11.303,1.98,0.12,-3.96,4.43
11.313,2.31,0.82,-3.41,4.21
11.322,2.45,1.68,-2.63,3.97
11.333,2.57,2.15,-2.21,4.01
11.343,2.82,2.05,-2.15,4.10
11.353,3.09,1.80,-2.15,4.17
11.362,3.23,1.52,-2.17,4.18
11.373,3.12,1.19,-2.29,4.05
11.382,2.95,0.69,-2.55,3.96
11.392,2.61,0.23,-2.60,3.70
11.402,2.25,-0.19,-2.01,3.02
11.412,2.20,-0.74,-1.27,2.65
11.422,1.96,-1.28,-0.59,2.41
11.432,1.45,-1.29,-0.05,1.94
11.442,0.80,-0.79,0.35,1.18
11.452,-0.03,-0.43,1.02,1.11
11.462,-0.99,-0.39,1.77,2.07
11.472,-1.95,-0.62,2.03,2.88
11.482,-2.92,-0.10,2.57,3.89
11.492,-3.79,1.20,2.83,4.88
11.502,-4.28,2.84,2.67,5.79
11.512,-4.33,4.49,2.74,6.81
11.522,-4.40,5.90,3.38,8.10
11.532,-3.83,6.41,3.90,8.42
11.542,-2.44,5.77,4.24,7.57
11.552,-0.98,4.29,4.58,6.35
11.562,0.07,2.40,4.83,5.39
11.572,0.69,0.37,4.55,4.62
11.582,1.37,-0.21,3.44,3.71
11.592,1.60,-0.30,2.47,2.96
11.602,1.91,-0.95,1.51,2.62
11.612,2.21,-1.73,0.46,2.84
11.622,2.36,-2.67,0.20,3.57
11.632,3.01,-2.42,0.49,3.89
11.642,3.32,-2.25,-0.54,4.05
11.652,2.85,-2.87,-1.51,4.32
11.662,2.20,-2.39,-1.64,3.64
11.672,1.48,-2.79,-1.70,3.59
11.682,0.65,-3.66,-1.15,3.89
11.692,-0.06,-3.35,-0.59,3.40
11.702,-0.79,-2.18,-0.11,2.32
11.712,-1.16,-0.88,-0.15,1.46
11.722,-1.21,-0.24,-0.20,1.25
11.732,-1.22,-0.08,0.30,1.26
11.742,-1.22,-0.06,0.85,1.49
11.752,-1.34,-0.22,1.01,1.70
11.762,-1.43,-0.48,1.02,1.82
11.772,-1.50,-0.51,1.00,1.88
11.782,-1.48,-0.71,0.78,1.81
11.792,-1.17,-1.28,0.34,1.77
11.802,-0.82,-1.44,-0.01,1.65
11.812,-0.13,-1.52,-0.83,1.74
11.822,0.77,-0.80,-1.10,1.56
11.832,1.94,0.82,-0.73,2.23
11.842,3.05,2.53,-0.55,4.00
11.852,3.85,3.74,-2.02,5.74
11.862,3.17,3.42,-3.99,6.14
11.872,0.96,1.71,-4.10,4.55
11.882,-0.76,-1.26,-3.99,4.26
11.892,-1.65,-2.62,-3.21,4.45
11.902,-1.67,-1.69,-2.13,3.19
11.912,-1.26,0.28,-1.12,1.71
11.922,-1.02,3.27,0.39,3.45
11.932,-0.36,7.34,1.38,7.48
11.942,0.69,10.84,1.32,10.94
11.953,0.92,12.67,1.87,12.84
11.963,-0.83,12.11,3.34,12.59
11.972,-4.15,7.74,4.95,10.08
11.982,-5.80,0.78,5.36,7.94
11.992,-5.01,-3.21,4.55,7.49
12.002,-3.31,-4.74,3.01,6.52
12.012,-2.14,-5.28,2.21,6.10
12.021,-1.39,-4.28,1.69,4.81
12.032,-0.95,-2.28,1.03,2.68
12.041,-0.88,-1.62,0.27,1.87
12.051,-1.52,-2.03,-0.64,2.61
12.061,-2.34,-1.26,-0.96,2.83
12.071,-2.36,-0.32,-0.82,2.51
12.081,-1.54,-0.46,-0.67,1.74
12.091,-0.65,-0.79,-0.67,1.22
12.101,-0.31,-1.04,-0.46,1.18
12.111,-0.70,-1.72,0.06,1.86
12.121,-0.77,-2.31,-0.26,2.45
12.131,-0.75,-2.68,-0.79,2.90
12.141,-0.78,-2.59,-0.82,2.82
12.151,-0.88,-2.20,-0.45,2.42
12.161,-0.71,-1.63,-0.63,1.89
12.171,-0.23,-1.12,-1.15,1.62
12.181,-0.03,-0.82,-1.36,1.59
12.191,-0.09,-0.56,-1.34,1.45
12.201,-0.38,-0.27,-1.16,1.25
12.211,-0.78,0.16,-0.86,1.18
12.221,-1.44,0.46,-0.79,1.71
12.231,-1.65,0.75,-0.65,1.92
12.241,-1.20,0.92,-0.49,1.59
12.251,-0.48,0.90,-0.43,1.11
12.261,0.18,0.72,-0.53,0.91
12.271,0.82,0.34,-0.74,1.15
12.281,1.32,-0.11,-1.06,1.70
12.291,1.54,-0.73,-1.29,2.14
12.301,1.43,-1.28,-1.55,2.46
12.311,1.07,-1.47,-1.93,2.65
12.321,0.69,-1.44,-2.48,2.95
12.331,0.45,-1.33,-3.15,3.45
12.341,0.39,-1.04,-3.75,3.91
12.351,0.48,-0.65,-4.00,4.08
12.361,0.73,-0.06,-4.03,4.09
12.371,1.07,0.82,-3.61,3.85
12.381,1.49,1.87,-2.84,3.71
12.391,2.04,2.55,-2.17,3.92
12.401,2.45,2.54,-1.85,3.99
12.411,2.67,1.93,-1.72,3.71
12.421,2.81,1.36,-1.65,3.54
12.431,2.95,0.91,-1.72,3.53
12.441,3.14,0.41,-1.80,3.65
12.451,3.08,-0.03,-1.67,3.50
12.461,2.91,-0.35,-1.28,3.20
12.471,2.63,-0.53,-0.75,2.79
12.481,1.99,-0.44,0.10,2.04
12.491,1.07,0.03,0.85,1.37
12.501,0.01,0.40,1.39,1.45
12.511,-1.08,0.32,1.84,2.15
12.521,-1.85,-0.46,1.88,2.67
12.531,-2.76,-0.96,2.10,3.60
12.541,-3.76,-0.53,2.33,4.46
12.551,-4.47,0.76,2.20,5.04
12.561,-4.84,2.51,2.17,5.87
12.571,-4.86,4.07,2.39,6.78
12.581,-4.37,5.35,2.87,7.48
12.591,-3.06,5.52,3.59,7.26
12.601,-1.47,4.86,4.14,6.55
12.611,0.07,3.74,4.70,6.00
12.620,1.08,2.01,5.00,5.49
12.631,1.66,0.20,4.33,4.64
12.640,2.46,-0.28,2.94,3.84
12.650,2.84,-0.57,2.21,3.64
12.660,2.88,-1.43,1.62,3.60
12.670,2.82,-2.49,0.85,3.86
12.681,2.47,-3.46,0.59,4.29
12.690,2.35,-3.55,0.97,4.36
12.701,1.77,-3.15,0.08,3.62
12.710,1.45,-2.73,-1.32,3.37
12.720,1.14,-2.75,-1.38,3.28
12.730,0.55,-2.99,-1.11,3.24
12.740,-0.41,-3.19,-0.91,3.35
12.750,-1.15,-2.22,-0.87,2.65
12.760,-1.46,-0.68,-0.64,1.74
12.770,-1.62,0.29,-0.69,1.79
12.780,-1.59,1.19,-0.55,2.06
12.790,-1.36,1.43,0.25,1.99
12.800,-0.77,0.69,1.15,1.54
12.810,-0.50,-0.07,1.56,1.64
12.820,-0.53,-0.39,1.45,1.59
12.830,-0.39,-0.36,0.92,1.07
12.840,0.12,-0.47,0.29,0.57
12.850,0.80,-0.86,-0.17,1.18
12.860,1.40,-1.23,-0.41,1.91
12.870,1.83,-1.22,-0.88,2.37
12.880,2.25,-0.49,-1.47,2.73
12.890,2.56,0.76,-1.56,3.09
12.900,2.82,1.87,-1.21,3.59
12.910,2.90,2.04,-1.57,3.88
12.920,2.18,1.53,-2.10,3.39
12.930,0.78,0.57,-2.67,2.84
12.940,-0.62,-0.90,-3.19,3.38
12.950,-1.44,-1.94,-3.24,4.04
12.960,-1.17,-1.85,-2.91,3.64
12.970,-0.11,-1.33,-2.28,2.64
12.980,0.74,0.53,-0.87,1.26
12.990,1.14,3.17,0.52,3.41
13.000,1.21,5.54,1.34,5.83
13.010,0.75,7.78,2.44,8.19
13.020,-0.25,9.58,3.80,10.30
13.031,-2.20,10.97,5.36,12.41
13.040,-5.04,9.43,6.49,12.51
13.050,-5.93,2.83,5.79,8.75
13.060,-4.31,-2.70,4.14,6.56
13.070,-2.87,-5.26,2.97,6.69
13.080,-2.59,-6.04,1.97,6.86
13.090,-2.94,-4.63,1.40,5.66
13.100,-3.02,-2.67,0.89,4.13
13.110,-2.67,-1.25,0.15,2.95
13.120,-2.27,-0.34,-0.52,2.35
13.130,-2.00,0.29,-0.66,2.12
13.140,-1.58,1.06,-0.62,2.00
13.150,-0.71,1.21,-0.80,1.61
13.160,0.27,0.95,-1.03,1.43
13.170,0.56,0.11,-1.02,1.17
13.180,0.20,-0.55,-0.97,1.13
13.190,-0.04,-0.82,-1.05,1.33
13.199,0.09,-0.99,-1.10,1.49
13.210,0.11,-1.32,-0.84,1.57
13.220,-0.17,-1.59,-0.28,1.62
13.230,-0.15,-1.54,-0.48,1.62
13.240,-0.01,-1.60,-0.84,1.81
13.250,-0.10,-1.60,-0.65,1.73
13.260,-0.33,-1.56,-0.43,1.65
13.269,-0.60,-1.60,-0.36,1.75
13.280,-0.81,-1.36,-0.35,1.62
13.289,-1.36,-1.39,-0.66,2.05
13.300,-1.94,-1.14,-1.09,2.50
13.309,-1.78,-0.29,-1.24,2.19
13.319,-0.93,0.38,-1.49,1.80
13.329,-0.06,0.31,-1.67,1.70
13.339,0.62,-0.35,-1.50,1.66
13.349,1.21,-1.21,-1.43,2.23
13.359,1.74,-1.73,-1.66,2.97
13.369,1.82,-1.68,-1.99,3.18
13.379,1.56,-1.26,-2.28,3.03
13.390,1.36,-0.75,-2.76,3.16
13.399,1.27,-0.24,-3.34,3.59
13.409,1.40,0.27,-3.85,4.11
13.419,1.80,0.63,-4.09,4.51
13.429,2.31,1.17,-3.75,4.55
13.439,2.48,2.03,-2.60,4.12
13.449,2.39,2.66,-1.34,3.82
13.459,2.20,2.61,-0.83,3.51
13.469,2.22,2.32,-0.88,3.33
13.479,2.44,1.93,-1.20,3.34
13.489,2.71,1.53,-1.57,3.48
13.499,2.87,1.09,-1.90,3.61
13.509,2.84,0.33,-2.21,3.61
13.519,2.65,-0.43,-2.56,3.71
13.529,2.42,-0.90,-2.49,3.59
13.539,2.05,-1.16,-1.95,3.06
13.549,1.36,-1.13,-1.26,2.17
13.559,0.64,-0.74,-0.81,1.27
13.569,-0.12,-0.15,-0.37,0.42
13.579,-1.13,0.15,0.61,1.29
13.589,-2.18,-0.06,1.63,2.72
13.599,-3.29,-0.51,2.24,4.01
13.609,-4.58,-0.27,2.74,5.34
13.619,-5.61,0.77,2.78,6.31
13.629,-5.81,2.29,2.57,6.76
13.639,-5.36,3.85,2.62,7.10
13.649,-4.63,5.18,3.30,7.69
13.659,-3.70,5.36,3.77,7.52
13.669,-2.51,4.53,4.21,6.67
13.679,-1.26,3.57,4.88,6.18
13.689,-0.08,2.06,5.37,5.75
13.699,1.04,0.38,5.11,5.23
13.709,2.05,-0.52,3.80,4.35
13.719,2.80,-0.19,2.67,3.87
13.729,3.14,-0.15,1.93,3.69
13.739,3.37,-0.82,0.84,3.57
13.749,3.32,-2.15,-0.17,3.96
13.759,3.41,-3.02,-0.18,4.55
13.769,3.25,-3.03,-0.03,4.45
13.779,2.35,-3.39,-0.99,4.24
13.789,1.60,-3.15,-1.61,3.88
13.799,1.01,-3.42,-1.59,3.90
13.809,0.18,-3.30,-1.12,3.49
13.819,-0.68,-2.92,-0.60,3.06
13.829,-1.03,-1.68,-0.04,1.97
13.839,-1.03,-0.53,0.13,1.16
13.849,-0.87,0.20,0.34,0.96
13.859,-0.70,0.55,0.84,1.22
13.869,-0.52,0.49,1.34,1.52
13.879,-0.61,0.45,1.65,1.82
13.889,-0.77,0.40,1.64,1.85
13.898,-0.82,0.40,1.46,1.73
13.909,-0.75,0.29,1.07,1.33
13.919,-0.31,-0.43,0.44,0.69
13.929,0.06,-0.99,0.26,1.03
13.938,0.44,-1.36,-0.26,1.45
13.948,0.92,-1.41,-1.09,2.00
13.959,1.64,-0.37,-1.85,2.50
13.969,2.79,0.87,-2.03,3.56
13.979,3.92,1.41,-1.94,4.60
13.988,4.35,1.79,-2.70,5.42
13.999,3.55,1.34,-3.64,5.26
14.008,1.65,-0.72,-3.94,4.33
14.018,-0.17,-2.46,-3.66,4.41
14.028,-1.06,-2.73,-2.83,4.07
14.038,-1.13,-0.69,-1.46,1.97
14.048,-1.22,3.31,0.74,3.60
14.058,-1.12,8.92,2.84,9.42
14.068,-0.23,14.84,2.78,15.10
14.080,0.08,17.40,2.31,17.56
14.088,-2.00,14.20,4.46,15.02
14.098,-4.32,4.84,5.24,8.34
14.108,-5.38,-2.28,4.17,7.18
14.118,-4.37,-4.87,3.41,7.38
14.128,-2.81,-6.20,2.51,7.26
14.138,-1.82,-6.38,2.10,6.96
14.148,-1.08,-4.51,1.08,4.76
14.158,-0.36,-2.13,0.29,2.18
14.168,0.02,-1.29,-0.39,1.34
14.178,-0.34,-1.55,-1.26,2.02
14.188,-1.30,-1.23,-1.59,2.39
14.198,-1.82,-0.59,-1.33,2.33
14.208,-1.55,-0.74,-0.99,1.98
14.218,-0.88,-0.56,-0.70,1.25
14.228,-0.18,-0.19,-0.55,0.61
14.238,-0.64,-0.74,0.10,0.98
14.248,-1.31,-1.40,0.29,1.94
14.258,-1.24,-1.49,-0.17,1.94
14.268,-0.95,-1.53,0.06,1.80
14.278,-0.58,-1.72,0.23,1.83
14.288,-0.16,-1.85,-0.28,1.88
14.298,0.15,-2.00,-1.05,2.26
14.308,-0.13,-2.15,-1.45,2.60
14.318,-0.91,-2.06,-1.26,2.58
14.328,-1.73,-1.67,-0.82,2.54
14.338,-2.26,-0.90,-0.29,2.45
14.348,-2.49,-0.20,-0.20,2.50
14.358,-2.15,0.79,-0.26,2.30
14.368,-1.48,1.39,-0.10,2.03
14.378,-0.78,1.38,0.13,1.59
14.388,-0.21,1.10,0.30,1.16
14.398,0.31,0.83,0.14,0.89
14.408,0.77,0.42,-0.34,0.94
14.418,1.12,0.01,-1.09,1.57
14.428,1.29,-0.26,-2.03,2.42
14.438,1.34,-0.28,-2.77,3.09
14.448,1.49,-0.22,-3.28,3.61
14.458,1.80,-0.17,-3.78,4.19
14.468,2.20,-0.22,-4.17,4.72
14.478,2.64,-0.30,-4.29,5.05
14.488,3.15,-0.39,-4.25,5.31
14.498,3.60,-0.50,-4.04,5.43
14.508,3.81,-0.50,-3.66,5.31
14.518,3.89,-0.07,-3.03,4.93
14.528,3.97,0.56,-2.49,4.72
14.538,4.18,1.05,-2.26,4.87
14.548,4.53,1.33,-2.39,5.29
14.558,4.69,1.20,-2.76,5.57
14.568,4.31,0.75,-2.82,5.20
14.578,3.60,0.14,-2.73,4.52
14.587,3.00,-0.68,-2.40,3.90
14.598,2.51,-1.69,-1.59,3.42
14.607,1.87,-2.45,-0.60,3.14
14.617,1.09,-2.55,0.20,2.78
14.627,0.43,-1.98,0.31,2.06
14.637,-0.54,-0.98,0.74,1.34
14.647,-1.88,0.35,1.75,2.60
14.657,-3.52,1.91,2.79,4.88
14.667,-5.60,4.15,4.36,8.22
14.677,-7.08,6.16,5.03,10.65
14.687,-7.34,6.66,4.45,10.86
14.697,-6.95,6.59,4.09,10.41
14.707,-5.55,7.05,3.98,9.81
14.717,-3.51,6.32,3.87,8.20
14.727,-1.81,4.41,4.15,6.33
14.737,-0.68,2.74,4.74,5.51
14.747,-0.05,1.25,4.95,5.11
14.757,0.16,-0.08,4.34,4.34
14.767,0.84,-0.03,3.55,3.65
14.777,1.78,0.39,3.15,3.64
14.787,2.33,0.07,2.69,3.56
14.797,2.62,-0.15,1.93,3.26
14.807,2.55,-1.24,0.92,2.98
14.817,2.18,-4.38,-0.22,4.89
14.827,2.28,-5.47,0.74,5.97
14.837,2.01,-4.79,0.86,5.26
14.847,1.03,-4.74,-0.07,4.85
14.857,0.37,-4.56,-0.93,4.67
14.867,-0.18,-4.84,-1.13,4.97
14.877,-0.97,-3.88,-0.61,4.04
14.887,-1.35,-2.13,-0.49,2.57
14.897,-1.43,-1.04,-0.48,1.83
14.907,-1.57,0.02,-0.34,1.61
14.917,-1.41,1.02,-0.01,1.74
14.927,-0.88,1.30,0.68,1.71
14.937,-0.25,1.07,1.24,1.65
14.947,0.11,0.49,1.19,1.29
14.957,0.12,-0.37,0.97,1.05
14.967,-0.06,-0.75,1.06,1.30
14.977,0.18,-0.79,0.73,1.09
14.987,0.63,-1.15,-0.02,1.31
14.997,1.05,-1.59,-0.75,2.05
15.007,1.39,-1.88,-1.29,2.67
15.017,1.86,-2.09,-2.06,3.48
15.027,2.19,-1.26,-2.48,3.54
15.037,2.73,0.20,-2.63,3.80
15.047,3.50,1.50,-2.65,4.63
15.057,4.32,1.64,-3.27,5.66
15.067,3.92,1.67,-3.67,5.62
15.077,1.98,0.18,-4.40,4.82
15.087,0.02,-1.70,-4.18,4.51
15.097,-1.06,-2.42,-3.08,4.06
15.107,-1.69,-1.12,-1.69,2.64
15.117,-2.33,2.33,0.87,3.41
15.127,-2.72,7.80,3.87,9.12
15.137,-1.76,14.12,3.81,14.73
15.148,-0.17,18.16,2.87,18.39
15.157,-0.45,16.11,4.71,16.79
15.167,-2.07,4.93,5.65,7.78
15.177,-4.03,-3.55,4.57,7.06
15.187,-3.69,-5.93,3.63,7.87
15.197,-2.75,-6.36,2.99,7.54
15.207,-2.45,-5.74,2.55,6.74
15.217,-1.89,-3.91,1.29,4.53
15.226,-0.91,-1.57,0.10,1.82
15.237,-0.11,-0.13,-0.63,0.65
15.246,-0.22,0.50,-0.86,1.02
15.257,-1.19,-0.04,-0.72,1.39
15.266,-2.18,-0.51,-0.48,2.29
15.277,-2.35,-0.33,-0.27,2.39
15.286,-1.89,-0.11,-0.29,1.92
15.296,-1.30,0.37,-0.30,1.38
15.306,-1.17,0.77,0.09,1.40
15.316,-1.52,0.91,0.34,1.80
15.326,-1.34,0.34,-0.40,1.44
15.336,-0.98,0.03,-0.76,1.24
15.346,-0.73,-0.24,-0.60,0.97
15.356,-0.61,-0.75,-0.50,1.09
15.366,-0.54,-1.54,-0.71,1.78
15.376,-0.56,-2.24,-0.90,2.48
15.386,-0.65,-2.57,-0.90,2.80
15.396,-0.68,-2.56,-0.87,2.79
15.406,-0.96,-2.50,-1.07,2.88
15.416,-1.20,-1.81,-1.01,2.40
15.426,-1.45,-1.11,-1.04,2.10
15.436,-1.21,-0.50,-1.17,1.75
15.446,-0.81,-0.15,-1.18,1.44
15.456,-0.39,0.07,-1.04,1.11
15.466,0.17,0.03,-0.96,0.98
15.476,0.85,-0.36,-0.97,1.34
15.486,1.42,-1.01,-1.09,2.05
15.496,1.74,-1.52,-1.49,2.75
15.506,1.73,-1.60,-1.96,3.07
15.516,1.59,-1.47,-2.45,3.27
15.526,1.63,-1.31,-3.05,3.70
15.536,1.98,-1.24,-3.93,4.57
15.546,2.41,-1.19,-4.84,5.54
15.556,2.69,-0.67,-4.99,5.71
15.566,2.88,0.36,-4.26,5.15
15.576,3.10,1.62,-3.27,4.79
15.586,3.26,2.10,-2.33,4.53
15.596,3.47,2.01,-1.81,4.40
15.606,3.69,1.83,-1.62,4.42
15.616,3.56,1.53,-1.40,4.13
15.626,3.38,1.00,-1.51,3.84
15.636,3.18,0.31,-1.98,3.76
15.646,2.92,-0.33,-2.15,3.64
15.656,2.66,-0.82,-1.72,3.27
15.666,2.41,-1.09,-1.03,2.84
15.676,1.85,-1.08,-0.38,2.18
15.686,1.03,-0.61,0.22,1.22
15.696,-0.22,-0.13,1.11,1.14
15.706,-1.69,0.06,2.14,2.73
15.716,-3.06,-0.37,2.77,4.15
15.726,-4.37,-0.49,3.46,5.60
15.736,-5.56,0.11,3.78,6.72
15.746,-6.53,1.61,3.29,7.49
15.756,-6.87,3.56,2.96,8.28
15.766,-6.29,5.37,3.22,8.88
15.776,-4.69,6.35,3.45,8.62
15.786,-2.75,6.16,3.65,7.67
15.796,-1.13,5.08,4.23,6.71
15.806,0.06,3.82,5.07,6.35
15.816,0.90,2.38,5.45,6.01
15.826,1.94,1.43,4.75,5.33
15.836,3.39,1.49,3.78,5.29
15.845,3.95,0.67,3.42,5.27
15.856,4.17,0.23,2.81,5.04
15.865,4.07,-0.44,1.68,4.42
15.875,3.59,-3.00,0.21,4.69
15.886,3.83,-4.18,0.51,5.69
15.895,3.29,-4.44,0.25,5.54
15.906,2.22,-4.00,-1.04,4.69
15.915,1.20,-3.09,-1.61,3.69
15.926,0.21,-3.32,-1.03,3.49
15.935,-0.57,-2.42,-0.60,2.56
15.945,-0.81,-0.86,-0.33,1.23
15.955,-0.75,0.13,0.29,0.81
15.965,-0.66,1.13,0.73,1.50
15.975,-0.75,2.00,1.13,2.42
15.985,-0.77,2.14,1.48,2.72
15.995,-0.66,1.40,1.48,2.14
16.005,-0.69,0.45,1.12,1.39
16.015,-0.71,-0.26,0.85,1.14
16.025,-0.71,-0.69,0.73,1.23
16.035,-0.50,-1.48,0.37,1.61
16.045,-0.25,-2.02,-0.05,2.03
16.055,0.00,-2.01,-0.24,2.03
16.065,0.36,-1.84,-0.76,2.02
16.075,0.82,-1.39,-1.53,2.23
16.085,1.61,-1.00,-2.26,2.95
16.095,2.34,-0.06,-2.29,3.27
16.105,2.77,0.92,-2.16,3.64
16.115,2.93,1.35,-2.45,4.05
16.125,2.58,1.38,-2.74,4.01
16.135,1.54,0.64,-2.77,3.23
16.145,0.26,-1.15,-2.86,3.10
16.155,-0.49,-2.31,-3.18,3.96
16.165,-0.90,-2.28,-2.42,3.45
16.175,-1.44,-0.76,-0.57,1.72
16.185,-1.82,2.54,1.25,3.37
16.195,-1.22,7.14,3.01,7.84
16.205,0.04,11.27,3.05,11.68
16.216,0.35,12.65,2.26,12.85
16.225,-1.79,10.91,3.65,11.65
16.235,-4.33,4.89,4.73,8.07
16.245,-5.18,-0.87,4.50,6.92
16.255,-4.28,-3.73,4.14,7.03
16.265,-3.03,-5.17,3.48,6.93
16.275,-2.30,-5.08,2.89,6.28
16.285,-1.68,-3.34,1.91,4.20
16.295,-1.06,-1.40,0.98,2.01
16.305,-0.70,-0.24,0.17,0.76
16.315,-0.78,0.04,-0.51,0.94
16.325,-1.16,-0.32,-0.77,1.42
16.335,-1.53,-0.06,-0.70,1.68
16.345,-1.29,0.58,-0.63,1.55
16.355,-0.65,0.75,-0.54,1.13
16.365,-0.23,0.41,-0.26,0.53
16.375,-0.20,-0.26,-0.06,0.33
16.385,-0.36,-0.41,-0.07,0.55
16.395,-0.60,-0.08,-0.20,0.64
16.405,-0.41,0.03,-0.52,0.66
16.415,-0.04,-0.21,-0.78,0.81
16.425,0.51,-0.43,-0.88,1.10
16.435,0.98,-0.85,-1.16,1.74
16.445,1.09,-1.55,-1.23,2.26
16.455,0.71,-1.75,-0.72,2.02
16.465,0.13,-1.64,-0.27,1.67
16.475,-0.42,-1.54,-0.11,1.60
16.485,-0.97,-1.31,-0.24,1.65
16.495,-1.57,-1.04,-0.66,2.00
16.505,-1.93,-0.48,-0.92,2.19
16.515,-1.97,-0.17,-1.09,2.26
16.525,-1.52,-0.13,-1.10,1.88
16.534,-0.86,-0.33,-1.07,1.41
16.544,-0.38,-0.83,-1.07,1.41
16.555,0.01,-1.41,-1.15,1.82
16.564,0.25,-1.84,-1.27,2.25
16.575,0.31,-1.82,-1.41,2.33
16.584,0.38,-1.46,-1.65,2.23
16.594,0.56,-1.06,-2.02,2.35
16.605,0.85,-0.63,-2.51,2.72
16.614,1.21,-0.17,-2.92,3.16
16.624,1.62,0.23,-3.11,3.51
16.634,1.78,0.60,-2.99,3.53
16.644,1.62,1.18,-2.43,3.15
16.655,1.39,1.60,-1.67,2.70
16.664,1.32,1.58,-1.24,2.40
16.674,1.29,1.23,-1.18,2.14
16.684,1.14,0.59,-1.10,1.69
16.694,0.93,-0.15,-1.01,1.38
16.704,0.81,-0.73,-1.20,1.62
16.714,0.85,-1.07,-1.61,2.11
16.724,0.91,-1.11,-1.76,2.27
16.734,0.91,-0.91,-1.49,1.97
16.744,0.82,-0.41,-0.93,1.30
16.754,0.68,0.32,-0.47,0.88
16.764,0.35,1.17,0.00,1.22
16.774,-0.30,1.86,1.08,2.17
16.784,-1.09,1.52,2.23,2.91
16.794,-1.70,0.25,2.91,3.38
16.804,-2.31,-0.79,3.62,4.36
16.814,-2.93,-1.10,3.84,4.95
16.824,-3.39,-0.65,3.15,4.67
16.834,-3.38,0.67,2.67,4.36
16.844,-2.95,2.58,2.90,4.87
16.854,-2.52,4.56,3.32,6.18
16.864,-1.89,5.69,3.49,6.94
16.874,-1.00,5.75,3.55,6.83
16.884,0.06,5.18,3.74,6.39
16.894,1.53,4.21,3.73,5.83
16.904,3.09,2.79,3.49,5.43
16.914,4.10,1.44,3.13,5.36
16.924,4.05,0.28,2.83,4.95
16.934,3.30,-0.95,2.20,4.08
16.944,2.71,-1.99,1.65,3.74
16.954,2.43,-3.68,1.26,4.58
16.964,2.44,-4.38,0.54,5.04
16.974,1.88,-3.92,0.21,4.36
16.984,0.73,-3.68,-0.36,3.77
16.994,0.55,-3.21,-2.46,4.08
17.004,0.01,-2.82,-1.98,3.45
17.014,-0.91,-1.93,-0.34,2.16
17.024,-1.44,-0.95,-0.05,1.73
17.034,-1.37,0.39,0.09,1.43
17.044,-0.83,1.56,0.41,1.82
17.054,-0.21,2.14,0.80,2.30
17.064,0.13,2.18,1.38,2.59
17.074,0.06,1.79,1.94,2.64
17.084,-0.10,0.94,2.14,2.34
17.093,-0.14,-0.04,1.88,1.89
17.104,-0.43,-0.46,2.13,2.23
17.114,-0.42,-0.58,1.09,1.31
17.124,-0.02,-1.36,-0.91,1.63
17.134,0.13,-1.30,-0.22,1.32
17.144,0.58,-1.00,-0.53,1.27
17.153,0.96,-0.95,-0.64,1.50
17.164,1.24,-0.98,-0.34,1.62
17.173,1.70,-1.17,-0.61,2.16
17.183,2.28,-0.58,-0.79,2.48
17.194,2.82,-0.03,-1.45,3.17
17.203,2.77,0.18,-1.77,3.30
17.213,2.39,-0.08,-1.51,2.83
17.223,1.71,-0.27,-1.14,2.07
17.233,1.66,-0.56,-1.53,2.32
17.243,0.91,-1.00,-1.29,1.87
17.253,0.91,-2.10,-1.63,2.81
17.263,1.28,-1.89,-1.60,2.79
17.273,1.39,-1.04,-1.09,2.05
17.283,1.01,0.46,-0.20,1.13
17.293,0.33,3.17,0.53,3.23
17.303,0.67,6.31,0.96,6.42
17.313,1.85,8.70,1.67,9.05
17.323,2.48,7.97,2.40,8.69
17.333,0.73,6.61,4.01,7.76
17.343,-2.24,4.55,4.85,7.01
17.353,-4.49,0.93,5.29,7.00
17.363,-5.24,-1.25,7.35,9.11
17.373,-3.96,-2.52,5.47,7.21
17.383,-2.02,-3.10,2.23,4.32
17.393,-1.73,-2.02,0.03,2.66
17.403,-2.47,-0.85,1.03,2.80
17.413,-3.44,0.09,2.25,4.12
17.423,-4.18,0.44,1.80,4.57
17.433,-4.45,0.66,1.04,4.62
17.443,-4.15,1.47,0.71,4.46
17.453,-3.46,1.65,0.80,3.91
17.463,-3.08,1.27,0.72,3.41
17.473,-3.03,0.69,0.69,3.18
17.483,-2.92,0.12,0.48,2.97
17.493,-2.74,-0.12,0.05,2.75
17.503,-2.56,-0.30,-0.01,2.58
17.513,-2.20,-0.57,0.09,2.28
17.523,-1.88,-1.01,0.34,2.16
17.533,-1.68,-1.23,0.63,2.17
17.543,-1.50,-1.07,0.77,2.00
17.553,-1.58,-0.83,0.90,2.00
17.563,-1.94,-0.29,1.09,2.24
17.573,-2.64,0.49,1.17,2.93
17.583,-2.49,0.72,0.92,2.76
17.593,-2.49,0.53,0.95,2.72
17.603,-2.93,0.54,1.00,3.15
17.613,-1.81,0.08,0.46,1.87
17.623,-1.04,0.27,0.04,1.07
17.633,-2.41,1.31,-0.31,2.76
17.643,-2.39,-0.10,-1.25,2.70
17.653,-1.53,-1.84,-1.06,2.62
17.663,-1.18,-2.14,-1.09,2.67
17.673,-1.03,-1.98,-1.00,2.44
17.683,-0.61,-1.32,-0.71,1.62
17.693,-0.12,-0.55,-0.92,1.08
17.703,0.02,-0.13,-0.68,0.69
17.713,-0.44,-0.08,-0.00,0.45
17.723,-0.92,-0.29,-0.05,0.97
17.733,-0.91,-0.39,-0.40,1.07
17.743,-0.08,-0.50,-0.89,1.03
17.753,-0.08,-0.00,-0.79,0.79
17.763,-0.89,0.51,-0.84,1.32
17.772,-1.11,-0.12,-1.01,1.50
17.782,-1.14,-0.88,-0.18,1.45
17.793,-0.71,-1.20,-0.10,1.40
17.802,-0.23,-0.81,-0.08,0.85
17.813,-0.23,-0.11,0.20,0.33
17.822,-0.52,-0.07,0.20,0.56
17.832,-0.64,-0.27,0.09,0.70
17.842,-1.25,0.27,-0.64,1.43
17.852,-1.03,0.63,-0.88,1.49
17.862,-0.20,0.45,-0.61,0.79
17.872,-0.37,1.59,-0.57,1.73
17.882,0.31,1.09,-0.71,1.34
17.892,-0.15,0.09,1.18,1.19
17.902,-0.15,0.42,1.42,1.49
17.912,0.79,1.99,1.80,2.80
17.922,1.00,3.85,2.12,4.51
17.932,1.03,3.52,1.82,4.10
17.942,0.58,2.97,1.69,3.47
17.952,0.46,2.61,1.50,3.05
17.962,0.44,2.55,1.20,2.85
17.972,0.13,2.11,1.18,2.43
17.982,-0.34,1.61,1.16,2.02
17.992,-0.35,1.26,1.04,1.67
18.002,0.03,1.16,0.99,1.52
18.012,0.34,1.18,0.90,1.52
18.022,0.84,0.65,0.71,1.28
18.032,1.10,1.01,0.35,1.53
18.042,1.83,1.81,0.17,2.58
18.052,2.23,2.95,0.94,3.82
18.062,1.96,2.18,1.17,3.15
18.072,0.90,2.11,0.86,2.45
18.082,-0.38,1.58,1.25,2.05
18.092,-1.66,0.17,0.69,1.81
18.102,-2.61,1.56,0.52,3.09
18.112,-2.98,2.86,1.59,4.43
18.122,-2.60,0.28,2.32,3.49
18.132,-0.77,1.11,3.59,3.84
18.142,1.20,2.52,3.73,4.66
18.152,2.79,2.85,1.93,4.43
18.162,3.40,3.23,0.98,4.79
18.172,3.36,2.89,0.34,4.45
18.182,2.67,2.55,0.39,3.71
18.192,2.17,2.65,0.98,3.56
18.202,2.01,2.68,0.70,3.43
18.212,2.30,2.02,-0.27,3.07
18.222,2.52,2.02,-0.16,3.24
18.232,2.62,1.93,-0.51,3.29
18.242,2.83,2.14,-1.52,3.86
18.252,3.21,3.02,-2.09,4.88
18.262,3.23,3.03,-1.43,4.66
18.272,2.73,2.66,-0.80,3.90
18.282,1.17,1.75,0.62,2.20
18.292,0.47,0.89,3.96,4.08
18.302,1.48,0.64,6.20,6.41
18.312,2.75,-0.63,5.69,6.34
18.322,3.53,-1.91,4.33,5.91
18.331,3.45,-2.55,4.19,6.00
18.342,3.30,-3.58,3.38,5.93
18.352,3.28,-3.87,3.20,6.00
18.361,3.92,-3.71,3.81,6.61
18.372,4.48,-3.06,4.75,7.21
18.382,4.81,-3.05,3.94,6.92
18.392,4.42,-2.71,3.11,6.05
18.402,3.90,-2.22,2.61,5.19
18.412,3.82,-2.15,1.62,4.67
18.421,3.86,-2.51,1.21,4.76
18.432,3.75,-3.11,1.12,4.99
18.441,3.58,-3.16,1.03,4.89
18.452,3.13,-2.46,0.90,4.08
18.461,2.58,-1.68,0.39,3.10
18.471,1.63,-2.22,-0.21,2.76
18.481,0.61,-3.35,-0.43,3.43
18.491,0.07,-3.59,-0.92,3.70
18.501,-0.66,-3.18,-1.00,3.40
18.511,-1.26,-2.94,-1.33,3.46
18.521,-1.83,-1.49,-1.14,2.62
18.531,-2.25,-0.15,-1.64,2.79
18.541,-2.52,-0.14,-2.09,3.28
18.551,-2.62,-0.33,-1.64,3.11
18.561,-2.37,-0.12,-0.90,2.54
18.571,-1.80,0.45,-0.11,1.86
18.581,-0.80,0.87,0.73,1.38
18.591,0.22,1.29,1.79,2.22
18.601,1.04,1.78,2.69,3.39
18.611,1.72,1.91,2.84,3.83
18.621,1.95,1.86,2.43,3.63
18.631,1.74,2.11,2.11,3.45
18.641,1.83,2.48,2.19,3.78
18.651,2.04,2.06,1.67,3.34
18.661,1.99,1.43,1.57,2.91
18.671,1.76,0.95,2.37,3.11
18.681,1.51,0.28,3.22,3.57
18.691,1.09,-0.43,3.20,3.41
18.701,0.61,-0.53,2.59,2.72
18.711,0.27,-0.34,2.01,2.05
18.721,-0.01,-0.20,1.30,1.32
18.731,-0.26,-0.09,0.53,0.60
18.741,-0.53,0.48,0.10,0.72
18.751,-0.37,1.02,-0.50,1.20
18.761,-0.00,1.30,-0.97,1.63
18.771,0.23,1.61,-1.26,2.05
18.781,0.54,1.66,-1.36,2.22
18.791,0.64,1.66,-0.97,2.03
18.801,0.60,1.53,-0.43,1.70
18.811,0.64,1.09,-0.53,1.37
18.821,0.40,0.49,-1.25,1.41
18.831,0.23,0.38,-1.95,2.01
18.841,0.57,1.03,-1.77,2.12
18.851,0.92,1.49,-1.51,2.31
18.861,1.27,1.27,-2.23,2.86
18.871,1.56,1.29,-2.66,3.34
18.881,1.75,1.55,-2.55,3.46
18.891,1.68,1.67,-2.55,3.48
18.901,1.45,1.70,-2.57,3.41
18.911,1.55,1.40,-2.71,3.42
18.921,7.89,4.00,-2.00,9.07
18.931,11.98,6.96,-3.33,14.25
18.941,4.67,1.07,-5.64,7.39
18.951,0.50,-2.23,-3.53,4.20
18.961,-1.14,-2.71,1.00,3.10
18.971,-1.08,-2.28,2.62,3.63
18.981,-1.41,-2.84,1.23,3.40
18.991,-1.10,-3.32,2.01,4.03
19.000,-0.23,-2.90,1.84,3.44
19.011,0.27,-3.10,0.89,3.24
19.021,0.79,-2.60,0.15,2.72
19.030,2.04,-1.23,-0.66,2.47
19.041,2.73,-0.57,-2.86,4.00
19.051,3.03,0.84,-4.49,5.48
19.061,2.48,1.74,-4.46,5.39
19.071,1.56,1.38,-3.05,3.70
19.081,0.82,0.51,-1.81,2.05
19.090,0.44,0.29,-1.29,1.40
19.100,0.46,0.26,-0.91,1.06
19.110,0.36,-0.20,-0.65,0.77
19.120,-0.11,-0.54,-0.97,1.11
19.130,-0.47,-0.30,-1.10,1.24
19.140,-0.47,0.16,-1.18,1.28
19.150,-0.36,0.27,-1.60,1.66
19.160,-0.11,-0.11,-1.23,1.24
19.170,-0.17,-0.49,0.08,0.52
19.180,0.10,-1.06,0.97,1.44
19.190,0.52,-1.35,1.65,2.20
19.200,0.33,-1.47,1.48,2.11
19.210,0.02,-1.03,0.18,1.04
19.220,-0.09,-0.28,-3.83,3.84
19.230,0.44,1.91,-5.83,6.15
19.240,1.12,2.10,-3.14,3.94
19.250,-0.01,-0.27,0.04,0.28
19.260,-0.04,-0.69,2.06,2.18
19.270,0.71,-0.22,2.15,2.28
19.280,1.09,-0.15,1.87,2.17
19.290,0.95,-0.32,1.74,2.01
19.300,0.61,-0.37,1.16,1.36
19.310,0.66,-0.62,-1.13,1.45
19.320,0.41,-0.24,-2.82,2.86
