time,ax,ay,az,atotal
0.000,0.66,0.42,0.68,1.03
0.010,0.52,0.02,0.93,1.07
0.020,0.01,-0.46,0.34,0.58
0.030,-0.25,0.09,-0.47,0.54
0.040,0.21,-0.36,-2.01,2.05
0.050,0.47,-0.37,-2.87,2.93
0.060,0.70,-0.01,-2.97,3.05
0.070,0.89,-0.20,-2.54,2.70
0.080,1.04,-0.35,-1.77,2.09
0.090,1.19,-0.43,-0.97,1.59
0.100,1.15,-0.09,-0.40,1.22
0.110,1.06,0.12,-0.48,1.16
0.120,0.88,0.12,-1.12,1.43
0.130,0.78,0.14,-1.67,1.85
0.140,0.86,0.00,-2.01,2.18
0.150,1.15,-0.33,-2.42,2.70
0.160,1.45,-0.62,-2.72,3.14
0.170,1.61,-0.77,-2.70,3.23
0.180,1.59,-1.01,-2.48,3.12
0.190,1.47,-1.24,-2.26,2.97
0.200,1.79,-0.42,-0.65,1.95
0.210,2.24,-0.86,0.15,2.41
0.220,3.08,-1.57,-0.87,3.57
0.230,2.90,-2.41,-3.15,4.91
0.240,-1.66,-1.42,-7.30,7.62
0.250,-2.30,-0.24,8.54,8.85
0.260,1.39,1.09,6.54,6.77
0.270,0.10,-0.32,-0.17,0.38
0.280,1.41,0.19,-1.37,1.98
0.290,-0.36,0.06,-3.76,3.78
0.300,-1.96,0.62,0.44,2.10
0.310,-0.98,-0.53,3.92,4.07
0.320,2.35,-1.88,3.19,4.39
0.330,3.27,-0.94,5.86,6.78
0.340,2.47,0.42,5.34,5.90
0.350,2.17,2.28,3.04,4.37
0.360,1.58,3.03,1.70,3.82
0.369,0.46,3.58,1.66,3.97
0.379,0.59,3.71,-1.64,4.10
0.389,2.27,3.10,-5.10,6.39
0.399,1.65,3.85,-8.19,9.20
0.409,0.21,4.16,-7.31,8.41
0.419,1.40,1.46,-6.38,6.70
0.429,3.16,-1.00,-6.27,7.09
0.439,3.37,-1.24,-6.32,7.27
0.450,3.34,0.25,-3.97,5.20
0.459,4.62,4.12,-3.83,7.27
0.469,6.73,6.65,-4.64,10.54
0.479,6.68,8.04,-5.22,11.69
0.489,6.52,8.63,-6.15,12.45
0.499,7.82,7.52,-5.66,12.24
0.509,9.54,5.42,-3.86,11.63
0.519,9.80,4.83,-3.61,11.51
0.529,9.69,5.43,-2.31,11.35
0.539,9.28,6.01,0.35,11.06
0.549,8.09,6.97,2.80,11.04
0.559,6.57,8.30,5.19,11.79
0.569,5.36,9.01,8.61,13.57
0.579,4.32,10.07,11.73,16.05
0.589,2.98,11.24,14.05,18.24
0.599,2.22,11.23,15.50,19.27
0.609,1.81,10.56,15.60,18.92
0.619,1.28,9.35,15.13,17.83
0.629,0.33,7.98,14.35,16.42
0.639,-1.17,6.70,13.05,14.72
0.649,-2.32,5.19,12.21,13.47
0.659,-3.12,3.61,11.92,12.84
0.669,-4.08,2.63,11.34,12.33
0.679,-4.78,1.84,10.71,11.87
0.689,-5.45,1.40,10.05,11.52
0.699,-6.11,1.18,9.71,11.54
0.709,-6.73,0.91,9.44,11.63
0.719,-7.48,0.40,9.25,11.90
0.729,-8.09,-0.23,8.92,12.04
0.739,-8.13,-0.50,8.32,11.64
0.749,-8.07,-0.50,7.45,10.99
0.759,-7.91,-0.49,6.49,10.25
0.769,-7.79,-0.63,5.79,9.73
0.779,-7.67,-1.00,5.11,9.27
0.789,-7.44,-1.27,4.44,8.76
0.799,-7.16,-1.34,3.88,8.25
0.809,-6.64,-1.33,3.67,7.70
0.819,-6.27,-1.26,3.17,7.13
0.829,-6.12,-1.31,2.50,6.74
0.839,-6.18,-1.52,1.99,6.67
0.849,-6.89,-1.83,0.57,7.15
0.859,-7.22,-1.98,-1.28,7.59
0.869,-6.37,-2.13,-1.17,6.81
0.879,-6.56,-3.01,-2.07,7.51
0.889,-6.60,-3.40,-2.80,7.94
0.899,-6.06,-2.95,-2.07,7.06
0.909,-4.41,0.58,-3.61,5.73
0.918,-2.96,2.11,-2.46,4.39
0.929,-2.39,1.53,-2.40,3.72
0.939,-1.71,1.27,-2.48,3.27
0.949,-1.29,0.80,-2.15,2.63
0.959,-1.18,0.30,-1.89,2.25
0.969,-1.24,-0.04,-1.87,2.24
0.979,-1.30,-0.22,-1.77,2.20
0.989,-1.32,-0.23,-1.31,1.87
0.999,-1.47,-0.23,-0.54,1.58
1.009,-1.47,-0.28,0.20,1.51
1.019,-0.96,-0.81,1.76,2.16
1.028,-1.56,0.12,1.26,2.01
1.038,-1.69,1.10,0.34,2.04
1.048,-1.24,1.21,0.84,1.92
1.059,-0.69,0.89,1.09,1.57
1.068,-0.66,0.42,0.78,1.11
1.079,-0.62,-0.02,0.13,0.64
1.088,-0.40,-0.14,-0.92,1.02
1.098,-0.03,-0.01,-1.61,1.61
1.108,0.22,-0.20,-1.53,1.56
1.118,0.15,-0.61,-1.15,1.31
1.128,-0.13,-0.77,-0.58,0.98
1.138,-0.29,-0.45,-0.02,0.53
1.148,-0.41,0.02,0.23,0.47
1.158,-0.48,0.33,0.22,0.62
1.168,-0.46,0.29,0.33,0.64
1.178,-0.58,-0.00,0.48,0.76
1.188,-0.69,-0.30,0.67,1.01
1.198,-0.67,-0.54,1.05,1.36
1.208,-0.68,-0.76,1.40,1.73
1.218,-0.62,-0.86,1.60,1.91
1.228,-0.43,-0.59,1.98,2.11
1.238,-0.22,-0.49,2.17,2.24
1.248,0.05,-0.69,2.16,2.27
1.258,0.62,-0.63,2.02,2.21
1.268,1.13,-0.24,1.47,1.87
1.278,1.14,-0.24,0.75,1.38
1.288,0.98,-0.83,0.29,1.32
1.298,0.86,-1.32,0.00,1.57
1.308,0.64,-1.47,-0.41,1.65
1.318,0.32,-1.54,-0.46,1.63
1.328,0.14,-1.57,-0.17,1.58
1.338,0.09,-0.90,-0.99,1.34
1.348,0.12,-0.61,-0.87,1.07
1.358,0.27,-0.18,-1.29,1.33
1.368,0.64,0.40,-1.54,1.71
1.378,0.87,0.42,-1.70,1.95
1.388,0.90,0.37,-1.92,2.16
1.398,0.88,0.67,-1.75,2.07
1.408,1.01,1.05,-0.89,1.70
1.418,1.20,1.05,0.03,1.59
1.428,1.38,0.80,0.88,1.83
1.438,1.60,0.08,1.58,2.25
1.448,1.53,-1.26,1.61,2.55
1.458,0.90,-3.04,1.86,3.68
1.468,-0.12,-5.03,1.74,5.32
1.478,-0.37,-4.20,0.07,4.21
1.488,0.51,-3.09,-1.22,3.36
1.498,1.20,-3.66,-1.41,4.11
1.508,1.53,-3.02,-2.13,4.00
1.518,1.99,-2.16,-1.42,3.26
1.528,1.73,-1.65,-0.87,2.55
1.538,0.84,-1.27,-0.71,1.68
1.548,-0.16,-1.20,-1.04,1.60
1.558,-1.02,-1.43,-0.41,1.80
1.568,-1.43,-1.89,0.66,2.46
1.578,-1.95,-0.37,-0.42,2.03
1.588,-1.83,1.08,-1.66,2.69
1.598,-2.23,2.14,-2.48,3.96
1.607,-3.23,3.79,-1.85,5.31
1.618,-4.92,6.00,0.92,7.81
1.627,-6.74,7.27,4.01,10.70
1.638,-7.75,5.18,4.08,10.18
1.647,-8.34,1.58,0.93,8.54
1.657,-7.07,-3.27,-0.66,7.82
1.667,-5.36,-7.12,-0.21,8.92
1.677,-6.37,-7.40,-2.38,10.05
1.687,-7.11,-7.46,-5.11,11.50
1.698,-5.79,-6.30,-4.01,9.45
1.707,-1.85,-0.09,3.32,3.80
1.717,-0.55,8.03,-0.14,8.05
1.727,0.25,10.31,-0.48,10.32
1.737,2.90,7.42,3.33,8.63
1.747,5.26,4.46,7.51,10.20
1.757,5.69,3.93,6.78,9.68
1.767,5.76,5.01,5.89,9.64
1.777,4.40,6.02,5.01,8.98
1.787,0.72,5.40,5.57,7.79
1.797,-0.58,-0.87,6.11,6.20
1.807,0.56,-4.68,3.20,5.69
1.817,0.54,-4.18,2.73,5.02
1.827,0.25,-4.47,2.99,5.38
1.837,0.24,-4.69,2.18,5.18
1.847,0.22,-3.84,1.13,4.01
1.857,-0.23,-3.34,2.09,3.94
1.867,-0.34,-3.14,2.00,3.73
1.877,-0.32,-2.42,0.56,2.51
1.887,-0.39,-1.75,-0.74,1.94
1.897,-0.27,-1.39,-2.01,2.46
1.907,-0.09,-0.86,-3.21,3.32
1.917,0.04,-0.68,-3.93,3.99
1.927,-0.09,-0.49,-4.81,4.83
1.937,-0.56,-0.26,-4.19,4.24
1.947,-1.78,0.82,-2.56,3.22
1.957,-17.13,15.05,17.39,28.67
1.967,-13.60,7.24,-2.32,15.58
1.977,-0.74,-3.45,-2.96,4.61
1.987,4.97,-9.47,6.12,12.32
1.997,8.89,-17.31,6.66,20.57
2.007,2.87,-8.34,4.01,9.69
2.017,-1.46,0.20,-3.65,3.93
2.027,-4.50,6.06,0.47,7.56
2.037,-4.55,6.80,2.06,8.44
2.047,-2.59,6.64,2.59,7.59
2.057,-1.37,3.98,2.01,4.66
2.067,-1.38,1.44,1.36,2.42
2.077,-1.39,0.57,-0.01,1.51
2.087,-1.17,-0.03,0.31,1.21
2.097,-1.33,-0.13,0.31,1.37
2.107,-1.45,-0.11,0.48,1.53
2.117,-1.93,0.11,0.73,2.07
2.127,-2.70,0.50,1.25,3.02
2.137,-3.42,0.99,1.75,3.97
2.147,-3.45,1.11,2.10,4.19
2.157,-3.55,1.36,2.19,4.38
2.167,-3.63,0.64,2.46,4.43
2.177,-3.25,-0.13,2.31,4.00
2.187,-3.18,0.55,3.81,5.00
2.197,-3.34,-0.04,2.49,4.17
2.207,-3.18,-0.10,1.44,3.49
2.217,-3.37,1.35,3.18,4.83
2.227,-3.66,2.69,1.83,4.90
2.237,-4.60,6.52,1.24,8.08
2.247,-6.31,8.83,0.28,10.86
2.257,-5.50,4.32,1.68,7.20
2.266,-1.44,-1.16,1.46,2.35
2.276,0.45,-1.42,-1.28,1.97
2.286,0.70,-0.58,-3.88,3.99
2.296,1.39,0.16,-3.80,4.05
2.306,1.85,0.58,-0.92,2.14
2.317,1.98,-0.62,1.03,2.31
2.326,0.38,-2.92,3.45,4.53
2.336,-0.84,-1.34,9.03,9.17
2.346,2.41,-1.47,0.51,2.87
2.357,4.17,-2.13,-3.60,5.91
2.367,5.33,-1.95,-5.19,7.69
2.376,5.54,-2.09,-5.31,7.96
2.386,4.26,-0.32,-4.51,6.22
2.397,2.43,1.37,-2.78,3.93
2.407,1.34,2.06,-0.16,2.46
2.417,0.66,2.24,1.87,2.99
2.426,0.34,2.40,3.13,3.96
2.436,0.54,2.52,3.89,4.67
2.446,0.93,2.30,3.68,4.44
2.456,1.15,1.45,3.10,3.61
2.466,1.10,0.14,2.73,2.95
2.476,0.69,-1.28,2.56,2.94
2.486,0.12,-2.63,2.52,3.65
2.496,-0.41,-3.74,2.50,4.52
2.506,-0.70,-4.71,2.52,5.38
2.516,-0.48,-5.39,2.68,6.04
2.526,-0.02,-5.45,2.45,5.98
2.536,0.45,-5.19,2.11,5.62
2.546,0.77,-4.95,1.81,5.33
2.556,0.81,-4.46,1.64,4.82
2.566,0.56,-3.10,1.23,3.38
2.576,-0.08,-1.31,0.77,1.52
2.586,-0.66,0.38,0.82,1.12
2.596,-0.78,1.71,1.33,2.30
2.606,-0.63,2.71,1.64,3.23
2.616,-0.41,3.42,1.72,3.85
2.626,-0.29,3.87,1.88,4.31
2.636,-0.42,3.61,2.12,4.21
2.646,-0.73,2.75,2.41,3.73
2.656,-1.04,1.67,2.75,3.38
2.666,-1.17,0.78,3.09,3.40
2.676,-1.19,0.23,3.49,3.69
2.686,-1.18,0.04,3.92,4.09
2.696,-1.36,0.25,4.27,4.49
2.706,-1.94,0.66,4.48,4.93
2.716,-2.91,0.87,4.64,5.54
2.726,-3.86,0.71,4.81,6.21
2.736,-4.34,0.69,4.51,6.30
2.746,-4.30,0.95,3.93,5.90
2.756,-3.81,1.12,3.26,5.14
2.766,-3.25,0.79,1.96,3.88
2.776,-2.78,0.34,0.38,2.82
2.786,-2.53,0.39,-1.41,2.92
2.796,-2.07,1.56,-3.06,4.01
2.806,-1.33,2.55,-4.02,4.94
2.816,-0.34,1.73,-5.01,5.31
2.826,0.34,-0.02,-5.11,5.12
2.836,1.18,-1.02,-4.57,4.83
2.846,2.31,-1.11,-4.31,5.01
2.856,3.12,-0.76,-4.29,5.36
2.866,3.53,0.15,-4.01,5.35
2.876,3.85,1.84,-3.14,5.29
2.885,4.48,4.27,-2.11,6.54
2.896,4.60,5.77,-0.97,7.44
2.906,3.92,4.67,-0.28,6.10
2.916,3.04,1.98,-0.35,3.64
2.926,1.63,-0.13,-0.69,1.78
2.935,-0.25,-1.75,-1.32,2.20
2.946,-1.16,-3.35,-1.92,4.03
2.956,-1.30,-4.44,-2.54,5.28
2.965,-1.68,-4.16,-2.69,5.23
2.975,-2.56,-4.00,-2.04,5.17
2.985,-3.59,-3.46,-0.61,5.02
2.995,-4.20,-2.08,0.59,4.72
3.005,-4.71,-2.69,1.03,5.52
3.016,-4.87,-3.58,1.35,6.20
3.025,-4.20,-1.93,2.17,5.10
3.036,-2.63,-0.17,2.29,3.49
3.045,-1.03,-0.35,1.83,2.13
3.055,0.17,-0.45,1.14,1.24
3.065,1.08,-0.32,0.36,1.18
3.075,1.65,-0.15,-0.28,1.68
3.085,1.66,-0.11,-0.87,1.88
3.096,1.07,0.17,-0.97,1.45
3.105,0.30,1.08,-0.40,1.19
3.115,-0.22,2.18,0.12,2.20
3.125,-0.24,1.62,0.61,1.75
3.135,-0.31,-0.29,1.55,1.60
3.145,-0.62,-1.01,2.19,2.49
3.155,-0.76,-0.33,2.50,2.63
3.165,-1.09,-0.41,3.23,3.43
3.175,-1.52,-0.10,3.27,3.60
3.185,-1.97,0.73,2.90,3.58
3.195,-2.22,-0.07,3.60,4.24
3.205,-1.28,-1.50,4.59,4.99
3.215,0.27,-1.86,4.18,4.58
3.225,1.21,-1.71,2.08,2.95
3.235,1.53,0.27,-1.37,2.08
3.245,1.29,3.95,-5.44,6.84
3.255,0.81,8.74,-8.07,11.93
3.265,0.05,13.03,-7.56,15.06
3.276,0.09,14.44,-5.74,15.54
3.285,2.17,11.29,-5.00,12.54
3.295,4.33,4.54,-4.26,7.58
3.305,3.60,-1.05,-3.18,4.91
3.315,3.18,-2.58,-2.81,4.96
3.325,3.70,-2.08,-2.34,4.84
3.335,3.55,-1.71,-1.57,4.24
3.345,2.83,-1.32,-0.70,3.20
3.355,1.85,-0.69,0.20,1.98
3.365,0.77,-0.03,1.04,1.30
3.375,-0.07,0.33,1.49,1.53
3.385,-0.23,0.24,1.69,1.73
3.395,0.25,-0.21,2.11,2.14
3.405,0.22,-0.68,2.00,2.12
3.415,0.21,-1.58,2.01,2.57
3.425,-0.00,-3.01,1.58,3.40
3.435,-0.19,-3.49,1.24,3.71
3.445,0.24,-3.20,2.09,3.83
3.455,0.67,-3.19,2.41,4.05
3.465,1.16,-3.18,2.81,4.40
3.475,1.80,-2.63,2.24,3.90
3.485,1.68,-2.45,1.56,3.36
3.495,1.19,-2.63,1.71,3.36
3.505,0.55,-2.77,1.46,3.18
3.515,0.04,-2.31,0.95,2.50
3.525,-0.22,-1.38,0.60,1.52
3.535,-0.30,-0.84,0.67,1.11
3.545,0.04,-0.91,0.96,1.32
3.555,0.20,-1.18,1.46,1.89
3.565,-0.07,-1.08,2.46,2.69
3.575,-0.33,-0.84,4.31,4.40
3.584,-0.74,-0.48,5.62,5.68
3.595,-1.39,-0.15,5.38,5.56
3.605,-2.33,0.14,4.22,4.82
3.615,-3.43,0.65,3.81,5.17
3.625,-4.34,1.38,3.62,5.82
3.634,-5.14,1.74,2.77,6.09
3.644,-6.02,1.08,1.59,6.32
3.655,-6.01,-0.29,1.50,6.20
3.664,-5.22,-1.83,1.88,5.85
3.675,-4.50,-3.07,1.97,5.79
3.684,-4.23,-3.66,1.53,5.80
3.695,-4.36,-3.17,0.54,5.42
3.705,-4.56,-1.72,-0.23,4.88
3.714,-4.46,-0.02,-0.65,4.51
3.724,-3.67,2.31,-1.78,4.69
3.734,-2.41,4.91,-3.53,6.51
3.744,-0.76,6.60,-3.99,7.75
3.754,1.59,7.21,-4.41,8.60
3.764,4.09,8.40,-5.07,10.63
3.774,6.16,9.23,-5.35,12.32
3.784,7.18,9.30,-5.65,13.03
3.795,7.22,9.28,-5.81,13.11
3.804,6.21,8.18,-5.55,11.67
3.814,5.50,4.79,-4.55,8.60
3.824,5.21,1.76,-3.55,6.55
3.834,4.64,-0.20,-3.37,5.74
3.844,2.69,-1.15,-4.03,4.98
3.854,0.33,-1.82,-4.87,5.21
3.864,-1.18,-3.43,-4.78,6.00
3.874,-2.03,-4.84,-3.85,6.51
3.884,-2.56,-5.69,-3.28,7.05
3.894,-3.21,-5.15,-2.00,6.39
3.904,-3.94,-4.19,0.50,5.78
3.914,-4.19,-3.76,2.79,6.28
3.924,-4.29,-5.09,3.20,7.38
3.934,-4.16,-5.13,2.79,7.17
3.944,-3.89,-5.60,2.55,7.28
3.954,-2.77,-5.06,2.80,6.42
3.964,-1.29,-3.62,2.64,4.67
3.974,-0.07,-3.06,2.00,3.65
3.985,0.83,-2.51,0.87,2.78
3.994,1.21,-1.76,-0.54,2.20
4.004,1.24,-0.98,-1.54,2.21
4.014,1.33,0.03,-1.95,2.36
4.024,1.76,1.47,-1.75,2.88
4.034,2.20,2.59,-1.03,3.55
4.044,2.32,3.15,-0.04,3.92
4.054,1.83,1.65,1.01,2.66
4.064,1.19,-0.99,2.33,2.80
4.074,0.90,-1.59,3.57,4.01
4.084,0.56,-1.23,3.50,3.75
4.094,-0.23,-0.74,3.47,3.55
4.104,-1.48,0.23,3.36,3.68
4.114,-2.53,1.89,2.89,4.27
4.124,-3.21,2.06,2.44,4.53
4.134,-2.78,0.43,2.60,3.83
4.144,-1.56,-0.94,3.25,3.73
4.154,-0.25,-0.47,2.25,2.31
4.164,0.62,2.63,-0.07,2.70
4.174,0.88,7.94,-2.89,8.50
4.184,0.84,13.77,-5.06,14.69
4.194,0.95,15.76,-5.18,16.61
4.204,2.20,12.95,-3.34,13.56
4.214,4.75,6.96,-3.97,9.32
4.224,5.17,1.17,-4.62,7.03
4.234,3.66,-1.58,-3.72,5.46
4.244,1.85,-2.02,-3.20,4.21
4.253,0.82,-1.80,-2.17,2.94
4.264,0.11,-2.07,-1.39,2.49
4.274,-0.37,-2.15,-1.33,2.56
4.284,-0.28,-1.57,-1.49,2.19
4.294,0.43,-1.12,-1.24,1.72
4.303,1.35,-1.22,-0.67,1.94
4.314,2.00,-1.72,0.10,2.65
4.323,1.95,-2.36,0.89,3.19
4.334,1.40,-2.79,1.80,3.60
4.343,1.30,-3.35,2.95,4.65
4.353,1.26,-3.56,3.08,4.87
4.363,1.26,-3.24,2.40,4.22
4.373,1.18,-2.85,1.73,3.53
4.383,0.96,-2.58,1.39,3.08
4.393,0.43,-2.35,1.53,2.83
4.403,-0.04,-2.01,1.96,2.81
4.414,-0.48,-2.10,2.16,3.05
4.423,-0.88,-2.06,1.10,2.49
4.433,-1.16,-1.35,-0.14,1.78
4.443,-0.85,-0.41,-0.57,1.10
4.453,0.03,0.53,-0.72,0.90
4.463,1.03,1.27,-0.73,1.79
4.473,1.91,1.20,-0.38,2.28
4.483,2.29,0.35,0.68,2.42
4.493,2.05,-0.97,2.41,3.31
4.503,1.29,-2.35,4.20,4.98
4.513,0.30,-3.38,5.27,6.27
4.523,-0.80,-3.90,5.31,6.63
4.533,-1.86,-3.92,4.76,6.44
4.543,-2.60,-3.59,4.30,6.18
4.553,-2.93,-2.74,3.97,5.64
4.563,-3.28,-1.54,3.61,5.11
4.573,-3.87,-0.18,3.47,5.20
4.583,-4.66,1.47,3.58,6.06
4.593,-5.21,3.15,3.75,7.15
4.603,-4.96,3.93,3.75,7.36
4.613,-4.00,3.43,2.82,5.98
4.623,-3.39,2.28,0.77,4.16
4.633,-3.47,0.97,-0.76,3.68
4.643,-3.74,0.44,-1.24,3.96
4.653,-3.77,1.07,-1.30,4.13
4.663,-3.03,2.37,-1.03,3.98
4.673,-1.59,3.10,-1.02,3.63
4.683,0.25,2.91,-1.30,3.19
4.693,2.21,2.89,-1.86,4.08
4.703,4.01,4.12,-2.27,6.18
4.713,5.43,5.85,-1.94,8.21
4.723,6.43,7.10,-2.13,9.81
4.733,7.04,7.26,-3.26,10.62
4.743,7.04,5.91,-5.64,10.78
4.753,6.68,4.52,-7.29,10.87
4.763,5.91,3.90,-7.46,10.28
4.773,4.28,3.07,-6.22,8.15
4.783,1.59,2.04,-5.14,5.76
4.793,-1.35,0.79,-5.11,5.35
4.803,-3.08,-0.54,-4.51,5.49
4.813,-3.65,-2.40,-4.01,5.93
4.823,-3.61,-4.13,-3.61,6.57
4.833,-3.63,-5.63,-2.26,7.07
4.843,-3.56,-4.03,-1.39,5.55
4.853,-4.06,-4.66,0.17,6.18
4.863,-4.78,-7.44,2.84,9.29
4.873,-5.44,-6.48,3.58,9.18
4.883,-5.65,-5.43,3.00,8.39
4.893,-5.15,-5.64,2.00,7.90
4.902,-3.63,-4.75,1.88,6.26
4.913,-2.05,-3.07,2.04,4.21
4.923,-0.61,-1.53,1.60,2.30
4.933,0.51,-0.14,0.56,0.77
4.943,1.23,0.74,-1.12,1.82
4.953,1.65,1.17,-2.83,3.48
4.963,1.76,1.25,-3.30,3.94
4.973,1.47,1.38,-1.70,2.64
4.982,1.04,1.27,0.23,1.65
4.993,0.69,-0.30,1.37,1.56
5.002,0.04,-1.92,2.74,3.35
5.013,-0.07,-2.61,3.19,4.12
5.023,0.41,-2.48,3.01,3.92
5.032,0.10,-1.47,2.54,2.93
5.042,-0.65,-0.26,2.71,2.80
5.052,-1.18,1.13,2.83,3.27
5.062,-1.28,2.40,2.61,3.77
5.072,-1.39,1.49,2.41,3.15
5.082,-0.56,0.52,2.14,2.27
5.092,0.85,0.43,1.70,1.95
5.102,2.25,1.93,-0.18,2.97
5.112,3.47,5.79,-2.81,7.31
5.122,3.61,10.43,-4.17,11.80
5.132,3.55,14.06,-6.41,15.85
5.143,4.46,14.61,-6.63,16.65
5.152,5.48,10.13,-3.22,11.96
5.162,5.79,2.37,-2.00,6.57
5.172,5.52,-1.53,-2.90,6.42
5.182,4.12,-2.37,-3.75,6.06
5.192,3.29,-1.97,-3.04,4.89
5.202,3.11,-1.37,-1.46,3.70
5.212,2.29,-0.69,-0.24,2.40
5.222,0.93,0.36,0.00,1.00
5.232,-0.26,1.24,-0.06,1.27
5.242,-1.06,1.34,0.23,1.72
5.252,-1.11,0.51,0.48,1.31
5.262,-0.76,0.15,0.59,0.98
5.272,-0.74,-0.28,0.98,1.26
5.282,-0.84,-0.78,1.62,1.98
5.292,-0.78,-0.77,2.02,2.30
5.302,-0.53,-0.99,1.94,2.25
5.312,-0.27,-1.91,1.44,2.40
5.322,0.08,-3.19,1.09,3.37
5.332,0.45,-4.09,1.39,4.34
5.342,0.93,-4.74,2.10,5.27
5.352,1.10,-5.28,2.69,6.03
5.362,1.47,-4.74,2.81,5.70
5.372,1.97,-4.01,1.89,4.85
5.382,1.90,-3.83,1.09,4.41
5.392,1.80,-2.94,0.53,3.48
5.401,1.77,-1.79,0.29,2.53
5.412,1.78,-1.15,0.29,2.14
5.422,1.71,-0.85,0.62,2.01
5.432,1.52,-0.58,1.23,2.04
5.442,1.23,-0.60,1.71,2.19
5.452,1.00,-1.08,2.50,2.91
5.462,0.69,-1.49,3.48,3.85
5.472,-0.13,-1.90,4.34,4.74
5.482,-1.31,-2.15,5.06,5.65
5.492,-2.32,-2.20,5.68,6.51
5.501,-3.01,-1.80,5.76,6.75
5.512,-3.76,-0.96,4.97,6.30
5.521,-4.64,0.38,3.82,6.02
5.532,-5.64,2.03,3.09,6.75
5.542,-6.43,3.81,2.99,8.05
5.551,-7.10,5.19,2.93,9.27
5.562,-7.47,5.45,2.63,9.61
5.572,-7.05,4.03,2.00,8.36
5.581,-6.07,1.18,0.92,6.25
5.592,-4.94,-1.28,-0.54,5.13
5.601,-4.02,-2.20,-2.32,5.14
5.611,-3.35,-2.48,-3.21,5.26
5.622,-2.49,-2.52,-2.97,4.62
5.631,-1.58,-1.95,-2.97,3.89
5.641,-0.03,0.40,-3.33,3.36
5.651,1.89,3.51,-3.37,5.22
5.661,3.44,5.37,-2.90,7.00
5.671,4.66,5.43,-1.51,7.32
5.681,5.51,4.78,-1.09,7.37
5.691,6.14,4.77,-3.09,8.37
5.701,6.53,5.65,-5.37,10.17
5.711,5.52,5.91,-5.24,9.64
5.721,3.14,4.87,-4.19,7.16
5.731,0.70,3.31,-3.68,5.00
5.741,-0.90,2.19,-3.77,4.45
5.751,-1.34,1.40,-4.11,4.54
5.761,-0.96,0.02,-4.60,4.70
5.771,-0.65,-1.22,-4.48,4.69
5.781,-0.97,-2.09,-3.93,4.56
5.791,-1.80,-3.12,-3.33,4.90
5.801,-2.64,-2.81,-2.36,4.52
5.811,-3.11,-2.44,-0.80,4.03
5.821,-3.30,-3.39,1.41,4.94
5.831,-3.36,-2.84,2.87,5.25
5.841,-3.14,-2.88,3.01,5.21
5.851,-3.02,-3.54,2.52,5.29
5.861,-2.31,-2.93,2.65,4.58
5.871,-1.09,-1.99,2.96,3.73
5.881,-0.06,-1.65,2.28,2.82
5.891,0.68,-1.77,1.19,2.24
5.901,1.07,-1.54,0.03,1.88
5.911,1.31,-0.86,-0.97,1.85
5.921,1.44,-0.30,-1.52,2.12
5.931,1.43,0.38,-1.38,2.02
5.941,1.22,0.83,-1.17,1.88
5.951,1.13,0.89,-0.73,1.61
5.961,1.28,0.65,0.27,1.46
5.971,1.25,-0.49,1.72,2.18
5.981,0.92,-1.67,3.33,3.84
5.991,0.55,-3.33,4.03,5.25
6.001,0.11,-2.49,3.07,3.96
6.011,-0.34,-0.53,3.03,3.09
6.021,-1.04,0.94,3.27,3.55
6.031,-1.72,2.91,2.79,4.38
6.041,-2.19,2.09,2.05,3.66
6.051,-1.41,0.54,2.47,2.90
6.061,0.44,0.88,3.83,3.95
6.071,2.69,4.36,2.16,5.57
6.081,4.66,8.98,-1.21,10.19
6.091,5.01,13.52,-4.58,15.13
6.101,3.88,13.23,-6.83,15.39
6.111,3.10,7.88,-4.15,9.43
6.121,3.71,1.98,-1.68,4.53
6.131,4.02,-2.11,-2.86,5.36
6.141,3.03,-2.60,-3.28,5.17
6.151,1.14,-1.64,-3.19,3.76
6.161,-0.27,-0.89,-2.33,2.51
6.171,-0.79,-0.19,-1.03,1.31
6.181,-0.80,0.56,0.17,1.00
6.191,0.10,0.84,0.40,0.93
6.201,1.65,0.36,0.27,1.70
6.211,2.81,-0.06,0.02,2.81
6.220,3.27,-0.38,-0.14,3.29
6.231,2.95,-0.76,0.11,3.05
6.240,2.17,-1.11,1.41,2.82
6.251,1.62,-1.60,2.64,3.49
6.260,0.91,-2.15,2.39,3.34
6.270,0.48,-2.20,1.98,3.00
6.281,0.20,-2.71,1.59,3.15
6.290,-0.12,-3.84,1.67,4.19
6.300,-0.63,-4.60,2.48,5.26
6.310,-0.90,-4.76,3.07,5.74
6.320,-0.97,-4.67,2.67,5.46
6.330,-0.95,-4.17,2.01,4.72
6.340,-0.53,-3.96,1.93,4.44
6.350,0.19,-3.36,1.51,3.69
6.360,0.75,-2.01,1.11,2.42
6.370,1.27,0.10,0.67,1.44
6.380,1.85,2.01,0.37,2.76
6.390,2.27,2.98,0.36,3.77
6.400,2.14,2.99,0.95,3.79
6.410,1.49,2.48,1.74,3.38
6.420,0.21,1.76,2.60,3.14
6.430,-1.24,0.75,3.60,3.88
6.440,-2.36,-0.46,4.76,5.33
6.450,-2.97,-1.66,5.63,6.58
6.460,-3.43,-2.55,5.65,7.08
6.470,-3.98,-2.82,5.18,7.12
6.480,-4.29,-2.40,4.79,6.86
6.490,-4.63,-1.33,3.81,6.14
6.500,-5.22,-0.27,2.22,5.68
6.510,-5.25,-0.02,1.17,5.38
6.520,-4.67,-0.36,0.84,4.76
6.530,-3.84,-0.76,0.57,3.96
6.540,-2.97,-0.97,0.02,3.12
6.550,-2.13,-0.66,-0.93,2.42
6.560,-1.23,0.10,-1.78,2.17
6.570,-0.26,1.76,-2.39,2.99
6.580,0.42,3.89,-2.89,4.86
6.590,0.90,4.66,-3.41,5.84
6.600,1.66,4.63,-3.86,6.25
6.610,3.08,4.47,-3.82,6.64
6.620,4.64,4.13,-3.66,7.21
6.630,5.69,4.31,-4.54,8.46
6.640,6.56,5.03,-5.07,9.70
6.650,7.43,5.46,-5.09,10.53
6.660,7.55,6.00,-3.78,10.36
6.670,6.43,4.96,-2.95,8.64
6.680,3.14,1.80,-2.74,4.54
6.690,0.56,-0.33,-3.03,3.10
6.700,-0.45,-1.93,-3.26,3.81
6.710,-1.36,-3.41,-3.28,4.93
6.720,-2.21,-3.93,-2.74,5.27
6.730,-3.01,-3.41,-2.54,5.21
6.740,-3.74,-2.35,-2.29,4.97
6.750,-4.71,-0.81,-1.11,4.91
6.760,-6.25,-2.03,1.14,6.67
6.770,-6.64,-3.64,1.85,7.79
6.780,-6.22,-3.57,0.87,7.22
6.790,-4.94,-3.95,0.91,6.39
6.800,-2.45,-3.98,1.43,4.88
6.810,-0.18,-2.99,1.57,3.38
6.820,1.11,-2.29,1.35,2.88
6.830,1.64,-2.40,0.75,3.00
6.840,1.88,-2.43,0.09,3.07
6.850,1.88,-1.86,-0.40,2.68
6.859,1.63,-1.14,-0.33,2.02
6.870,1.25,-0.29,0.15,1.29
6.879,1.00,0.53,0.34,1.18
6.890,0.85,0.35,0.61,1.10
6.899,0.78,-0.40,1.43,1.68
6.910,0.42,-0.37,2.13,2.20
6.919,-0.12,0.98,2.39,2.59
6.930,-1.10,2.43,2.10,3.40
6.939,-1.60,4.02,1.64,4.63
6.950,-1.39,5.09,1.31,5.44
6.959,-1.52,3.74,1.50,4.31
6.969,-1.80,0.99,1.97,2.85
6.979,-1.38,-0.89,2.26,2.80
6.990,-0.69,-0.69,2.38,2.58
6.999,-0.50,0.19,1.39,1.49
7.009,0.03,1.88,0.16,1.89
7.019,0.14,4.26,-1.26,4.45
7.029,0.52,7.80,-3.59,8.61
7.039,2.20,10.76,-4.15,11.74
7.049,4.43,11.85,-3.99,13.26
7.059,7.81,9.91,-4.52,13.41
7.069,8.41,4.86,-5.13,10.99
7.079,5.70,1.23,-4.02,7.08
7.089,3.74,-1.24,-2.94,4.92
7.099,3.72,-3.46,-2.42,5.62
7.109,3.97,-4.68,-2.01,6.46
7.119,3.34,-4.73,-1.77,6.06
7.129,1.88,-3.02,-1.45,3.85
7.139,0.56,-1.17,-0.99,1.63
7.149,-0.14,-0.03,0.09,0.17
7.159,-0.52,0.57,1.11,1.35
7.169,-0.66,0.63,2.14,2.32
7.179,-0.74,-0.32,3.70,3.79
7.189,-0.73,-1.55,4.28,4.61
7.199,-0.70,-2.47,3.35,4.22
7.209,-0.53,-3.20,2.36,4.01
7.219,-0.11,-3.89,1.52,4.18
7.229,0.33,-4.36,1.40,4.59
7.239,0.85,-4.32,1.71,4.72
7.249,1.25,-4.48,2.08,5.09
7.259,1.75,-3.95,1.79,4.68
7.269,1.53,-3.65,1.41,4.20
7.279,1.38,-3.27,1.59,3.89
7.289,1.57,-2.59,1.31,3.30
7.299,1.95,-1.73,0.87,2.75
7.309,2.43,-0.55,0.31,2.51
7.319,2.49,0.68,-0.17,2.59
7.329,1.78,1.28,-0.17,2.20
7.339,0.80,1.06,0.50,1.42
7.349,-0.02,0.50,1.61,1.69
7.359,-0.82,-0.11,3.08,3.19
7.369,-1.38,-0.66,4.50,4.76
7.379,-1.67,-0.80,5.08,5.41
7.389,-1.96,-0.27,4.86,5.25
7.399,-2.44,0.80,4.36,5.06
7.409,-3.06,2.06,3.46,5.06
7.419,-3.74,2.85,2.54,5.34
7.429,-4.28,2.61,1.80,5.33
7.439,-4.59,1.34,1.14,4.92
7.449,-4.67,0.10,1.23,4.83
7.459,-4.68,-0.35,1.77,5.01
7.468,-4.69,-0.16,2.20,5.18
7.479,-4.68,0.23,2.08,5.13
7.489,-4.29,0.41,1.37,4.52
7.499,-3.40,0.37,0.63,3.48
7.509,-2.53,0.75,-0.25,2.65
7.518,-1.88,1.84,-1.93,3.26
7.529,-1.50,2.35,-3.47,4.46
7.538,-0.85,2.48,-4.16,4.91
7.549,0.30,2.66,-4.22,5.00
7.559,2.06,2.50,-4.17,5.28
7.569,4.05,2.44,-4.47,6.51
7.578,5.36,2.83,-5.13,7.94
7.588,6.56,4.35,-5.86,9.82
7.599,7.21,6.96,-4.05,10.81
7.608,5.96,6.74,-2.40,9.31
7.618,2.81,3.94,-1.95,5.22
7.629,0.16,1.84,-1.58,2.43
7.638,-1.01,0.12,-1.69,1.97
7.649,-1.27,-1.37,-2.36,3.01
7.659,-1.57,-3.02,-3.06,4.57
7.668,-2.28,-3.26,-3.79,5.49
7.678,-2.89,-2.22,-3.65,5.16
7.688,-3.98,-1.28,-2.23,4.74
7.698,-5.10,-2.38,0.00,5.62
7.708,-5.28,-2.72,1.29,6.08
7.718,-4.98,-3.13,1.92,6.19
7.728,-4.22,-3.88,2.24,6.15
7.738,-2.58,-4.01,2.87,5.57
7.748,-0.42,-3.54,3.16,4.77
7.758,1.42,-2.77,2.62,4.07
7.768,2.36,-2.33,1.85,3.79
7.778,2.40,-2.40,0.77,3.48
7.788,2.21,-2.31,-0.23,3.20
7.798,2.08,-1.92,-1.05,3.02
7.808,1.59,-1.68,-1.48,2.74
7.818,1.30,-1.17,-1.34,2.21
7.828,1.36,-0.50,-1.23,1.90
7.838,1.58,0.47,-0.96,1.91
7.848,1.44,0.09,-0.21,1.46
7.858,0.94,0.33,0.79,1.27
7.868,0.10,1.19,2.10,2.42
7.878,-0.92,1.91,2.11,3.00
7.888,-1.98,3.36,1.94,4.36
7.898,-2.74,4.21,2.42,5.57
7.908,-2.64,4.69,3.01,6.17
7.918,-1.86,2.49,3.14,4.41
7.928,-0.41,-0.40,2.93,2.98
7.938,0.72,-1.84,2.78,3.41
7.948,1.72,-1.08,1.34,2.44
7.958,2.65,2.08,-0.25,3.38
7.968,3.10,5.45,-1.45,6.44
7.978,2.76,9.19,-3.84,10.33
7.988,3.18,12.52,-6.64,14.52
7.999,4.11,11.19,-4.58,12.77
8.008,5.60,6.01,-2.99,8.74
8.018,6.04,0.58,-2.91,6.73
8.028,5.07,-2.16,-3.19,6.37
8.038,3.36,-3.20,-3.77,5.98
8.048,2.70,-3.27,-3.10,5.25
8.058,2.53,-3.40,-2.17,4.76
8.068,2.12,-3.44,-1.48,4.30
8.077,1.91,-2.79,-0.98,3.52
8.088,1.36,-1.76,-0.34,2.25
8.098,0.77,-0.51,0.04,0.93
8.108,0.64,0.63,0.31,0.95
8.118,0.85,0.80,0.66,1.34
8.128,0.68,0.51,1.31,1.56
8.137,0.26,-0.13,2.23,2.24
8.148,0.08,-1.01,2.54,2.74
8.158,-0.14,-1.78,1.61,2.41
8.167,0.06,-2.39,1.44,2.79
8.177,0.49,-3.08,1.18,3.33
8.188,0.56,-3.76,1.30,4.02
8.198,0.53,-3.80,2.20,4.43
8.208,0.38,-3.22,1.71,3.67
8.217,-0.02,-3.11,1.65,3.52
8.228,-0.20,-2.96,1.92,3.53
8.237,-0.19,-2.25,1.88,2.94
8.248,-0.21,-1.23,1.50,1.95
8.257,-0.08,-0.11,0.84,0.85
8.267,0.29,0.56,0.59,0.87
8.277,0.41,0.33,0.85,1.00
8.287,-0.17,0.19,1.09,1.12
8.298,-0.95,0.13,1.44,1.73
8.307,-1.71,-0.10,2.17,2.77
8.317,-2.18,-0.32,3.17,3.86
8.328,-2.47,-0.39,3.99,4.71
8.337,-2.71,-0.41,4.47,5.24
8.347,-3.01,-0.23,4.23,5.20
8.357,-3.30,0.33,3.40,4.75
8.367,-3.58,0.80,2.34,4.35
8.377,-3.94,0.83,1.70,4.37
8.387,-4.13,0.54,1.40,4.40
8.397,-3.92,0.24,1.84,4.33
8.407,-3.48,0.01,2.34,4.19
8.417,-2.91,-0.64,2.47,3.87
8.427,-2.34,-1.24,2.14,3.41
8.437,-2.17,-1.41,1.35,2.92
8.447,-2.02,-1.09,0.45,2.34
8.457,-1.21,-0.39,0.22,1.29
8.467,-0.24,0.54,0.37,0.70
8.477,0.14,2.42,-0.54,2.49
8.487,0.57,4.81,-2.02,5.25
8.497,1.43,5.60,-3.28,6.64
8.507,2.79,5.39,-3.89,7.21
8.517,4.66,5.93,-4.02,8.55
8.527,6.07,6.26,-4.76,9.93
8.537,6.93,6.38,-5.43,10.88
8.547,6.96,6.70,-5.31,11.02
8.557,5.24,5.78,-4.93,9.23
8.567,2.60,3.99,-4.74,6.72
8.577,0.60,2.55,-4.51,5.21
8.587,-0.79,1.20,-4.44,4.66
8.597,-1.56,-0.45,-4.35,4.65
8.607,-2.32,-1.59,-4.02,4.90
8.617,-3.18,-2.09,-3.30,5.03
8.627,-4.04,-2.90,-2.54,5.58
8.637,-4.57,-2.73,-2.02,5.69
8.647,-4.67,-3.54,-0.96,5.94
8.657,-4.92,-4.09,1.18,6.51
8.667,-4.84,-4.95,3.12,7.59
8.677,-4.56,-4.73,3.13,7.27
8.687,-4.03,-4.64,2.79,6.75
8.697,-2.40,-4.82,3.33,6.33
8.707,-0.32,-3.69,3.35,4.99
8.717,1.45,-2.37,2.59,3.80
8.727,2.14,-1.45,1.37,2.92
8.736,2.24,-1.19,-0.05,2.53
8.747,2.37,-0.65,-1.55,2.90
8.757,2.32,-0.35,-2.79,3.64
8.767,2.00,0.04,-2.53,3.23
8.777,1.31,0.47,-1.48,2.03
8.786,0.74,0.82,-1.17,1.61
8.796,0.64,0.69,-0.29,0.98
8.807,0.11,-0.73,1.46,1.63
8.817,-0.11,-0.86,2.69,2.82
8.827,-0.01,-0.75,2.62,2.73
8.837,-0.60,-0.25,2.14,2.24
8.846,-1.42,0.67,2.31,2.80
8.856,-1.82,2.18,2.64,3.88
8.867,-2.15,1.88,2.95,4.11
8.876,-1.68,-0.09,2.87,3.33
8.886,-0.52,-1.28,3.15,3.44
8.896,0.12,-1.23,3.02,3.26
8.906,0.70,0.51,1.51,1.74
8.916,1.41,4.12,-0.46,4.38
8.927,1.27,9.02,-2.09,9.34
8.936,0.49,12.97,-4.36,13.69
8.948,1.02,14.40,-5.65,15.50
8.957,2.90,11.56,-4.18,12.63
8.966,5.18,5.38,-4.66,8.80
8.976,5.44,-0.17,-4.94,7.35
8.986,3.78,-2.67,-4.58,6.51
8.996,2.36,-2.90,-3.53,5.14
9.006,2.23,-2.29,-1.81,3.68
9.016,2.44,-2.22,-0.42,3.33
9.026,2.74,-2.42,-0.36,3.67
9.036,2.76,-1.41,-0.37,3.12
9.046,2.62,-0.29,-0.16,2.64
9.056,2.34,0.26,0.33,2.38
9.066,1.67,0.20,0.96,1.94
9.076,0.98,-0.15,1.41,1.72
9.086,0.59,-0.64,1.83,2.03
9.096,0.70,-1.34,2.29,2.74
9.106,0.49,-2.03,1.82,2.77
9.116,0.18,-2.56,1.28,2.86
9.126,0.03,-2.92,0.88,3.04
9.136,-0.29,-3.34,1.10,3.53
9.146,-0.34,-3.58,1.99,4.11
9.156,-0.20,-3.95,2.23,4.54
9.166,-0.03,-4.49,2.36,5.08
9.176,0.09,-4.74,1.58,5.00
9.186,0.20,-4.05,0.77,4.13
9.196,0.52,-3.28,0.61,3.38
9.206,1.40,-2.27,0.60,2.74
9.216,2.52,-1.26,0.75,2.91
9.226,2.90,-0.17,0.74,3.00
9.236,2.49,0.87,0.76,2.75
9.246,1.68,1.19,1.15,2.36
9.256,0.63,1.13,1.64,2.09
9.266,-0.49,0.95,2.46,2.68
9.276,-1.35,0.58,3.63,3.91
9.286,-2.04,0.17,4.70,5.13
9.296,-2.54,0.08,5.26,5.84
9.306,-2.96,0.45,5.09,5.90
9.316,-3.49,1.01,4.09,5.47
9.326,-4.05,1.54,3.10,5.33
9.335,-4.66,1.74,2.47,5.55
9.346,-5.19,1.27,2.03,5.72
9.355,-5.29,0.51,1.68,5.58
9.366,-4.87,-0.13,1.12,5.00
9.377,-4.00,-0.76,0.51,4.10
9.385,-3.03,-1.08,0.02,3.22
9.395,-2.43,-0.48,-0.31,2.49
9.406,-1.98,0.46,0.12,2.04
9.416,-1.45,1.66,0.99,2.42
9.426,-0.51,2.96,0.86,3.12
9.436,0.51,3.06,-0.28,3.12
9.446,1.98,1.65,-1.63,3.05
9.455,3.68,1.39,-2.64,4.73
9.466,5.56,2.45,-2.85,6.71
9.476,7.20,3.72,-2.77,8.57
9.486,7.99,4.69,-3.63,9.95
9.496,7.97,5.73,-4.65,10.86
9.505,7.19,5.80,-4.90,10.46
9.516,5.10,5.21,-4.54,8.59
9.526,2.43,3.62,-4.44,6.22
9.535,0.48,2.41,-4.35,4.99
9.545,-0.68,1.63,-4.40,4.74
9.555,-1.55,0.23,-4.63,4.89
9.565,-2.61,-1.18,-4.61,5.42
9.575,-3.41,-1.23,-3.44,4.99
9.585,-4.20,-2.04,-2.52,5.31
9.595,-4.46,-1.18,-2.41,5.20
9.606,-5.15,-1.17,-1.63,5.53
9.615,-5.60,-3.75,0.59,6.76
9.625,-5.22,-4.06,2.16,6.95
9.635,-5.01,-3.83,1.87,6.58
9.645,-4.70,-4.62,1.78,6.83
9.655,-3.24,-4.63,2.62,6.23
9.665,-1.39,-3.59,2.75,4.73
9.675,0.23,-2.58,2.30,3.46
9.685,1.12,-2.21,1.34,2.82
9.695,1.47,-1.83,0.24,2.36
9.705,1.78,-1.50,-0.80,2.46
9.715,2.16,-1.41,-1.50,2.98
9.725,2.37,-1.14,-1.57,3.07
9.735,2.14,-0.99,-0.92,2.53
9.745,1.61,-0.88,-0.53,1.90
9.755,1.34,-0.68,-0.32,1.53
9.765,1.17,-1.33,0.50,1.84
9.775,1.30,-1.77,1.83,2.86
9.785,1.55,-1.32,3.01,3.64
9.795,1.24,-0.17,3.04,3.29
9.805,0.24,1.52,2.60,3.03
9.815,-0.83,3.31,2.84,4.44
9.825,-1.67,4.09,2.99,5.34
9.835,-2.01,1.92,3.32,4.33
9.845,-0.99,-0.61,2.51,2.76
9.855,0.14,-1.01,2.17,2.40
9.865,1.11,0.17,1.97,2.27
9.875,2.27,2.89,-0.09,3.68
9.885,2.86,7.48,-2.39,8.36
9.895,1.90,12.04,-3.91,12.80
9.905,0.99,14.67,-5.65,15.75
9.916,1.71,13.06,-3.68,13.67
9.925,4.21,6.46,-2.78,8.20
9.935,5.94,-0.32,-4.09,7.22
9.945,5.72,-3.53,-4.68,8.19
9.955,3.81,-3.94,-4.90,7.35
9.965,2.70,-3.05,-3.60,5.43
9.975,2.21,-1.89,-1.62,3.32
9.985,1.67,-1.18,-0.88,2.22
9.995,1.14,-0.48,-0.29,1.27
10.005,0.80,0.55,0.37,1.04
10.015,0.91,1.07,0.59,1.53
10.025,1.44,0.71,0.60,1.71
10.035,1.72,0.01,0.84,1.91
10.045,1.44,-0.61,1.45,2.13
10.055,0.98,-0.92,2.11,2.50
10.065,0.74,-1.38,2.49,2.95
10.075,0.50,-1.91,1.96,2.78
10.085,0.13,-2.33,1.30,2.67
10.094,-0.27,-2.97,1.15,3.20
10.104,-0.61,-3.56,1.41,3.88
10.115,-0.47,-3.70,1.64,4.07
10.125,-0.26,-4.14,2.37,4.77
10.134,-0.25,-4.40,2.47,5.05
10.144,-0.45,-4.02,1.22,4.22
10.154,-0.71,-3.38,0.40,3.48
10.165,-0.52,-2.10,-0.31,2.18
10.174,0.23,-0.74,-0.78,1.10
10.184,1.13,0.27,-0.61,1.32
10.194,1.70,0.61,0.08,1.81
10.205,1.83,0.24,0.79,2.01
10.215,1.52,-0.04,1.46,2.10
10.224,0.98,-0.49,2.30,2.55
10.234,0.47,-0.78,2.96,3.10
10.244,0.00,-1.04,3.45,3.61
10.254,-0.28,-1.43,3.94,4.20
10.264,-0.63,-1.30,4.08,4.33
10.274,-1.21,-0.53,3.97,4.18
10.284,-2.00,0.66,3.46,4.05
10.294,-2.82,1.87,2.66,4.30
10.304,-3.52,2.93,1.91,4.96
10.314,-4.31,3.52,1.77,5.84
10.324,-5.11,3.35,2.12,6.47
10.334,-5.40,2.47,2.57,6.47
10.344,-5.09,1.13,2.78,5.91
10.354,-4.45,-0.06,2.46,5.08
10.364,-3.73,-0.43,1.66,4.10
10.374,-2.91,-0.16,0.85,3.04
10.384,-2.16,0.15,0.31,2.18
10.394,-1.94,0.21,0.06,1.95
10.404,-1.80,0.77,0.25,1.97
10.414,-0.79,1.64,-0.19,1.83
10.424,0.34,2.48,-1.40,2.87
10.434,1.27,2.14,-2.60,3.60
10.444,1.94,0.74,-3.59,4.15
10.454,2.81,-0.11,-3.72,4.67
10.464,3.77,-0.17,-3.75,5.32
10.474,4.46,0.84,-3.93,6.00
10.484,5.05,2.65,-4.01,6.97
10.494,5.88,4.60,-3.73,8.35
10.504,5.96,5.97,-2.81,8.89
10.514,4.17,5.84,-2.55,7.62
10.524,1.39,4.32,-2.82,5.35
10.534,-0.52,3.11,-2.99,4.34
10.544,-1.59,1.87,-3.64,4.38
10.554,-2.20,0.03,-4.17,4.72
10.564,-2.51,-1.24,-3.82,4.74
10.574,-2.95,-1.53,-3.46,4.80
10.584,-3.34,-1.64,-3.34,5.00
10.594,-3.86,-1.86,-2.34,4.89
10.604,-4.15,-4.34,-0.06,6.00
10.614,-4.07,-5.07,1.63,6.70
10.624,-3.85,-5.01,1.80,6.57
10.634,-3.18,-4.89,1.97,6.16
10.644,-1.78,-4.20,2.40,5.15
10.654,-0.12,-3.48,2.63,4.37
10.664,0.92,-2.80,2.09,3.62
10.674,1.46,-2.00,1.15,2.73
10.684,1.52,-1.44,-0.04,2.10
10.693,1.24,-1.02,-1.47,2.18
10.704,1.07,-0.48,-2.32,2.60
10.714,0.96,0.04,-1.98,2.20
10.724,0.81,0.34,-0.92,1.27
10.734,0.74,0.38,-0.44,0.94
10.743,0.53,0.20,-0.55,0.80
10.754,-0.01,-0.31,-0.45,0.54
10.764,-0.63,-0.86,0.38,1.13
10.773,-1.00,-0.70,1.73,2.12
10.784,-1.14,0.43,2.90,3.14
10.793,-1.54,1.53,2.45,3.27
10.803,-2.72,2.15,2.11,4.06
10.814,-3.25,3.81,2.75,5.71
10.823,-3.15,3.71,2.72,5.58
10.833,-2.19,2.10,1.82,3.54
10.843,-0.82,0.03,1.76,1.94
10.853,0.51,-0.10,1.09,1.21
10.863,2.56,2.77,0.62,3.82
10.873,4.86,6.95,-0.79,8.52
10.883,5.84,11.41,-2.23,13.01
10.893,5.22,13.52,-4.47,15.16
10.903,4.61,9.85,-4.54,11.78
10.913,4.50,3.39,-2.64,6.22
10.923,5.25,-1.79,-2.99,6.30
10.933,5.18,-4.80,-3.70,7.97
10.943,3.39,-4.48,-4.05,6.92
10.953,1.71,-2.63,-3.53,4.72
10.963,1.10,-0.77,-2.56,2.89
10.973,0.84,1.03,-1.30,1.85
10.983,0.67,1.80,-0.40,1.96
10.993,0.63,1.46,0.05,1.60
11.003,0.97,1.03,0.14,1.43
11.013,1.88,0.42,-0.19,1.94
11.023,2.68,-1.09,-0.52,2.94
11.033,2.84,-1.88,-0.36,3.42
11.043,2.13,-1.64,0.29,2.71
11.053,1.41,-1.19,0.70,1.97
11.063,1.00,-1.44,0.93,1.98
11.073,0.61,-2.07,1.32,2.53
11.083,0.20,-2.54,1.62,3.01
11.093,-0.19,-3.15,2.01,3.74
11.103,-0.47,-3.11,2.21,3.85
11.113,-0.57,-3.14,2.75,4.21
11.123,-0.66,-3.65,3.08,4.82
11.133,-0.89,-4.16,2.48,4.92
11.143,-0.98,-4.24,1.73,4.68
11.153,-0.91,-3.52,0.74,3.71
11.163,-0.62,-2.21,-0.08,2.29
11.173,-0.09,-1.03,-0.52,1.15
11.183,0.59,-0.08,-0.45,0.75
11.193,1.10,0.63,0.04,1.27
11.203,1.03,0.90,0.48,1.44
11.213,0.45,0.90,0.79,1.28
11.223,-0.42,0.75,1.19,1.47
11.233,-1.40,0.28,1.77,2.27
11.243,-2.25,-0.14,2.37,3.26
11.253,-2.76,-0.46,3.25,4.29
11.263,-2.82,-0.60,4.30,5.17
11.273,-2.75,-0.37,4.84,5.58
11.283,-2.93,-0.01,4.59,5.45
11.293,-3.29,0.63,3.76,5.03
11.303,-3.41,1.70,2.94,4.81
11.313,-3.28,2.78,2.39,4.92
11.323,-3.30,3.43,2.15,5.23
11.333,-3.58,3.14,2.07,5.20
11.343,-3.65,1.90,1.81,4.50
11.352,-3.34,0.26,1.58,3.70
11.363,-2.90,-1.13,1.26,3.36
11.373,-2.63,-1.95,0.80,3.37
11.383,-2.35,-2.18,0.41,3.23
11.393,-2.02,-1.89,0.43,2.79
11.402,-1.31,-0.97,0.89,1.86
11.412,-0.41,0.04,0.66,0.78
11.423,0.57,1.16,-0.32,1.33
11.433,1.74,1.76,-1.45,2.87
11.443,3.29,2.24,-2.55,4.73
11.452,5.09,3.06,-3.14,6.72
11.463,6.53,3.76,-3.36,8.25
11.472,6.71,4.12,-4.23,8.93
11.483,6.34,5.09,-4.91,9.50
11.493,6.22,6.05,-4.40,9.73
11.502,5.06,5.76,-3.74,8.54
11.512,2.87,4.35,-3.64,6.36
11.523,1.03,3.21,-3.60,4.94
11.533,-0.27,2.12,-4.01,4.54
11.542,-1.67,0.22,-4.78,5.07
11.552,-2.65,-0.38,-5.02,5.69
11.563,-3.44,-0.43,-4.07,5.34
11.572,-4.21,-1.62,-3.26,5.57
11.583,-4.61,-2.25,-2.49,5.70
11.592,-5.29,-2.52,-1.43,6.03
11.602,-5.57,-3.44,0.46,6.56
11.612,-5.22,-4.84,2.49,7.54
11.622,-4.76,-5.67,2.65,7.86
11.632,-4.20,-6.06,1.98,7.63
11.642,-2.98,-5.40,2.25,6.57
11.652,-1.41,-4.08,2.28,4.89
11.662,0.08,-2.51,1.46,2.90
11.672,0.97,-1.75,0.48,2.06
11.682,1.68,-1.07,-0.28,2.01
11.692,2.46,-0.47,-1.05,2.72
11.702,2.98,-0.16,-1.55,3.36
11.712,3.18,0.21,-0.96,3.32
11.722,2.99,0.14,0.02,3.00
11.732,2.73,0.31,0.15,2.75
11.742,2.57,0.17,0.21,2.58
11.752,2.08,-0.62,0.64,2.26
11.762,1.66,-0.86,1.06,2.15
11.772,1.57,-1.08,2.04,2.79
11.782,1.17,-0.47,2.99,3.24
11.792,0.20,1.38,2.30,2.69
11.802,-1.28,2.71,2.46,3.88
11.812,-2.45,3.83,3.20,5.56
11.822,-3.31,3.69,3.28,5.94
11.832,-3.11,1.88,2.69,4.52
11.842,-1.78,-0.46,3.47,3.93
11.852,-0.65,-1.72,3.64,4.08
11.862,-0.21,-1.61,2.77,3.21
11.872,0.54,0.28,0.90,1.09
11.882,1.16,3.15,-0.79,3.44
11.892,0.64,6.46,-2.57,6.99
11.902,1.17,10.42,-4.83,11.54
11.912,2.58,12.37,-4.73,13.49
11.923,4.64,10.68,-4.09,12.34
11.932,6.49,4.97,-4.38,9.28
11.942,5.94,-0.65,-4.43,7.44
11.952,4.80,-2.66,-4.36,7.01
11.962,3.90,-3.05,-3.79,6.24
11.971,3.63,-2.83,-2.53,5.25
11.982,3.64,-2.03,-1.41,4.40
11.992,3.21,-0.99,-0.43,3.38
12.002,2.08,0.77,0.13,2.22
12.012,1.51,1.83,0.45,2.42
12.022,1.80,1.10,1.03,2.35
12.032,1.76,0.12,1.43,2.27
12.042,1.14,-0.64,1.83,2.25
12.051,0.81,-1.22,2.22,2.66
12.061,0.76,-1.97,2.21,3.05
12.071,0.52,-2.79,1.76,3.34
12.082,0.33,-3.42,1.40,3.71
12.092,0.21,-3.37,1.21,3.58
12.101,0.11,-3.58,1.62,3.93
12.111,0.00,-3.73,1.82,4.14
12.122,0.30,-2.85,1.38,3.18
12.132,0.40,-2.63,1.39,3.00
12.142,0.22,-2.66,1.20,2.93
12.151,0.22,-2.34,0.68,2.45
12.161,0.52,-1.45,-0.23,1.56
12.171,1.24,-0.26,-0.73,1.46
12.182,2.00,0.53,-0.58,2.14
12.191,2.33,0.88,0.06,2.49
12.201,2.07,0.88,0.73,2.36
12.211,1.25,0.50,1.37,1.92
12.221,0.27,-0.08,2.02,2.04
12.231,-0.65,-0.63,2.70,2.85
12.241,-1.44,-1.12,3.29,3.76
12.251,-1.86,-1.44,3.79,4.46
12.261,-1.76,-1.56,4.12,4.74
12.271,-1.61,-1.37,4.17,4.67
12.281,-1.89,-0.68,3.90,4.38
12.291,-2.58,0.30,3.31,4.21
12.301,-3.38,1.28,2.55,4.42
12.311,-4.14,2.09,2.13,5.11
12.321,-5.00,2.68,2.35,6.14
12.331,-5.73,2.88,2.84,7.01
12.341,-5.87,2.45,3.12,7.08
12.351,-5.41,1.25,2.99,6.30
12.361,-4.77,-0.08,2.54,5.40
12.371,-4.25,-0.85,2.05,4.80
12.381,-3.89,-1.00,1.50,4.29
12.391,-3.61,-0.99,0.99,3.87
12.401,-3.12,-0.74,0.90,3.33
12.411,-2.03,0.30,1.19,2.37
12.421,-0.75,1.74,0.48,1.96
12.431,0.66,2.86,-0.95,3.08
12.441,2.32,1.83,-2.66,3.98
12.451,4.19,0.79,-4.01,5.85
12.461,6.08,1.42,-4.12,7.48
12.471,7.32,3.05,-3.71,8.76
12.481,7.49,4.38,-3.80,9.48
12.491,7.63,6.23,-4.12,10.68
12.501,7.80,7.92,-3.45,11.64
12.511,6.29,7.37,-2.72,10.06
12.521,3.55,4.92,-3.19,6.85
12.531,1.29,2.88,-3.51,4.72
12.541,-0.17,1.48,-3.98,4.25
12.551,-1.34,-0.11,-5.04,5.22
12.561,-2.75,-1.63,-5.61,6.46
12.571,-3.73,-1.47,-4.91,6.34
12.581,-4.48,-2.45,-3.65,6.27
12.591,-4.77,-2.19,-2.80,5.95
12.601,-5.09,-2.96,-1.46,6.06
12.611,-5.17,-3.55,0.34,6.28
12.621,-4.93,-5.08,2.38,7.47
12.631,-4.20,-6.15,3.11,8.07
12.641,-3.25,-5.83,2.61,7.17
12.651,-1.71,-5.88,2.89,6.77
12.661,0.12,-4.48,3.25,5.54
12.671,1.63,-2.72,2.57,4.08
12.681,2.45,-1.60,1.42,3.25
12.691,2.75,-0.68,0.36,2.86
12.701,3.01,0.01,-0.90,3.15
12.711,3.12,0.33,-2.03,3.74
12.721,2.74,0.76,-2.23,3.61
12.731,1.82,0.94,-1.50,2.53
12.741,1.29,1.03,-1.28,2.09
12.751,1.18,1.14,-1.05,1.95
12.760,0.67,0.31,-0.31,0.80
12.770,-0.16,-0.71,0.78,1.06
12.781,-0.63,-1.48,2.09,2.64
12.790,-0.82,-0.67,2.69,2.89
12.801,-1.40,0.52,2.09,2.57
12.810,-2.28,1.45,2.23,3.50
12.820,-2.38,3.13,3.12,5.02
12.830,-2.16,3.74,3.23,5.40
12.841,-2.07,2.43,1.81,3.67
12.851,-1.39,0.26,1.89,2.36
12.860,-0.07,-1.83,2.29,2.94
12.870,1.26,-2.28,1.26,2.90
12.880,2.44,0.19,0.14,2.45
12.890,3.24,4.17,-0.85,5.35
12.900,3.56,9.26,-2.56,10.25
12.910,3.92,13.14,-4.74,14.51
12.921,4.20,13.11,-4.38,14.45
12.930,5.52,9.04,-3.34,11.10
12.940,6.23,1.73,-2.81,7.05
12.950,5.35,-3.36,-3.17,7.06
12.960,4.19,-5.18,-3.91,7.73
12.970,3.52,-5.68,-3.85,7.71
12.980,3.50,-5.55,-2.90,7.17
12.990,3.13,-4.61,-2.03,5.93
13.000,1.95,-2.47,-1.22,3.37
13.010,0.58,-0.29,-0.51,0.83
13.020,-0.18,0.90,0.12,0.92
13.030,-0.05,0.65,1.27,1.43
13.040,0.30,0.10,1.88,1.91
13.050,0.33,-0.26,1.95,1.99
13.060,0.32,-0.46,2.14,2.21
13.070,0.25,-0.87,2.42,2.59
13.080,0.24,-1.31,2.17,2.54
13.090,-0.02,-1.38,1.31,1.90
13.100,-0.47,-1.10,0.57,1.32
13.110,-0.22,-1.15,1.17,1.65
13.120,0.03,-1.46,1.42,2.04
13.130,-0.33,-1.52,1.52,2.17
13.140,-0.80,-1.63,1.29,2.23
13.150,-1.21,-1.52,0.25,1.96
13.160,-1.32,-0.92,-0.83,1.81
13.170,-0.70,-0.01,-1.45,1.61
13.180,0.27,0.52,-1.32,1.45
13.190,1.03,1.18,-0.98,1.85
13.200,1.48,1.59,-0.60,2.26
13.210,1.61,1.61,0.04,2.28
13.220,1.30,1.27,0.89,2.02
13.230,0.55,1.08,1.71,2.10
13.240,-0.17,1.02,2.25,2.47
13.250,-0.61,0.46,2.68,2.78
13.260,-0.87,-0.59,3.12,3.29
13.269,-1.06,-1.93,3.53,4.16
13.280,-1.09,-2.97,4.04,5.13
13.289,-1.16,-3.57,4.39,5.77
13.300,-1.34,-3.51,4.44,5.81
13.310,-1.72,-2.85,3.97,5.18
13.320,-2.22,-1.73,3.38,4.40
13.330,-2.70,-0.30,3.24,4.22
13.340,-3.25,1.12,3.43,4.86
13.350,-3.88,2.41,3.54,5.77
13.360,-4.42,3.10,3.04,6.19
13.369,-4.80,2.63,1.82,5.76
13.380,-4.65,0.99,0.64,4.80
13.390,-3.99,-0.63,-0.24,4.05
13.400,-3.50,-1.16,-0.74,3.76
13.409,-3.01,-1.12,-0.75,3.30
13.419,-2.30,-0.69,-0.11,2.40
13.429,-1.41,-0.19,0.35,1.46
13.439,-0.55,0.16,-0.53,0.78
13.450,0.41,0.32,-2.10,2.16
13.459,1.86,0.68,-2.79,3.42
13.469,3.81,2.03,-3.20,5.37
13.479,5.91,3.82,-3.17,7.72
13.489,7.21,4.61,-3.45,9.23
13.499,7.54,5.07,-4.48,10.13
13.510,7.46,5.85,-4.67,10.57
13.519,6.27,5.93,-3.95,9.48
13.529,3.78,4.89,-3.76,7.23
13.539,1.25,3.58,-3.98,5.49
13.549,-0.42,2.73,-4.06,4.91
13.559,-1.23,1.73,-4.38,4.87
13.569,-1.63,-0.36,-4.38,4.68
13.579,-2.23,-0.68,-4.06,4.68
13.589,-3.35,-1.09,-3.39,4.89
13.599,-4.15,-1.91,-2.86,5.39
13.609,-4.71,-1.44,-2.13,5.37
13.619,-5.23,-1.70,-0.69,5.54
13.629,-4.97,-4.03,1.39,6.55
13.639,-4.60,-4.88,1.97,6.99
13.649,-4.10,-4.85,1.57,6.54
13.659,-2.89,-4.70,1.91,5.84
13.669,-1.00,-3.83,2.08,4.47
13.679,0.60,-2.46,1.76,3.08
13.689,1.59,-1.72,1.12,2.60
13.699,2.02,-1.46,0.18,2.50
13.709,2.23,-1.06,-0.92,2.63
13.719,2.43,-0.38,-1.76,3.03
13.729,2.59,0.33,-1.67,3.10
13.739,2.31,0.68,-0.86,2.56
13.749,2.20,0.63,-0.15,2.30
13.759,2.06,0.25,-0.10,2.08
13.769,1.44,-0.55,0.03,1.54
13.779,0.67,-1.17,0.63,1.49
13.789,0.12,-1.00,1.48,1.79
13.799,-0.23,-0.45,2.63,2.68
13.809,-0.58,0.78,3.12,3.27
13.819,-1.38,2.33,2.30,3.55
13.829,-2.59,3.01,2.26,4.57
13.839,-3.53,3.30,3.11,5.74
13.849,-3.54,3.05,3.24,5.68
13.859,-3.16,1.26,2.42,4.17
13.869,-2.23,-0.54,1.60,2.79
13.879,-1.12,-1.74,1.43,2.51
13.889,0.37,-1.56,1.70,2.34
13.899,1.96,0.43,0.96,2.23
13.909,2.76,3.04,-0.62,4.15
13.919,2.84,6.46,-1.99,7.33
13.929,3.33,9.83,-3.80,11.05
13.939,4.39,10.18,-4.76,12.07
13.949,6.12,8.03,-4.59,11.09
13.959,6.98,3.95,-4.66,9.27
13.969,5.80,0.21,-4.84,7.56
13.979,3.73,-2.16,-4.49,6.22
13.989,2.18,-2.92,-3.50,5.05
13.999,1.39,-2.89,-2.70,4.19
14.009,0.97,-2.58,-1.97,3.39
14.018,0.33,-1.84,-1.36,2.31
14.028,-0.29,-0.25,-0.73,0.82
14.038,0.05,0.99,-0.12,1.00
14.049,0.89,1.49,0.37,1.77
14.059,1.33,1.01,1.00,1.94
14.068,1.58,0.53,1.69,2.37
14.079,1.64,0.01,3.34,3.72
14.088,1.54,-0.63,3.67,4.03
14.099,1.11,-1.17,2.59,3.05
14.108,0.48,-1.65,1.53,2.30
14.119,0.22,-2.26,0.93,2.46
14.128,0.09,-2.87,0.83,2.99
14.138,-0.11,-3.46,1.20,3.67
14.148,-0.25,-3.89,1.66,4.24
14.158,-0.54,-3.76,1.53,4.09
14.168,-0.73,-3.50,1.32,3.82
14.178,-0.65,-3.11,0.39,3.20
14.188,-0.27,-2.31,-0.50,2.37
14.199,0.49,-1.21,-0.73,1.50
14.208,1.49,0.00,-0.45,1.56
14.218,2.07,0.53,0.16,2.15
14.228,2.11,0.66,1.04,2.44
14.238,1.88,0.46,1.44,2.41
14.248,1.27,-0.13,1.35,1.86
14.258,0.49,-0.53,2.02,2.14
14.268,-0.21,-0.85,2.34,2.50
14.278,-0.59,-1.16,2.74,3.03
14.288,-0.61,-1.51,3.12,3.52
14.298,-0.56,-1.33,3.19,3.50
14.308,-0.79,-0.44,2.82,2.96
14.318,-1.10,0.73,2.48,2.81
14.328,-1.43,1.97,2.26,3.31
14.338,-1.75,2.77,2.25,3.97
14.348,-1.74,3.01,2.08,4.05
14.358,-1.78,2.29,2.17,3.62
14.368,-2.00,1.13,2.18,3.17
14.378,-2.27,0.14,2.09,3.09
14.388,-2.32,-0.72,1.91,3.09
14.398,-1.91,-1.30,1.65,2.84
14.408,-1.70,-1.42,1.01,2.44
14.418,-1.45,-1.31,0.44,2.00
14.428,-1.00,-1.24,0.28,1.61
14.438,-0.97,-0.85,-0.33,1.33
14.448,-0.90,-0.04,-0.73,1.16
14.458,-0.35,1.05,-0.90,1.43
14.468,0.56,2.10,-1.04,2.41
14.478,1.37,2.36,-1.74,3.24
14.488,1.81,0.87,-2.41,3.14
14.498,2.17,-0.55,-2.76,3.55
14.508,2.96,-2.08,-3.27,4.87
14.518,3.69,-1.90,-4.17,5.88
14.528,3.97,-0.86,-4.53,6.08
14.538,3.68,0.47,-4.48,5.81
14.548,3.65,2.14,-4.20,5.97
14.558,3.62,3.96,-3.32,6.30
14.568,2.65,5.29,-2.17,6.30
14.578,1.03,5.55,-1.85,5.94
14.587,-0.42,5.20,-2.23,5.68
14.598,-2.94,4.25,-3.36,6.16
14.607,-5.19,3.10,-4.37,7.45
14.618,-3.86,1.76,-3.03,5.21
14.628,-2.73,0.16,-1.58,3.16
14.637,-2.88,-0.98,-1.11,3.24
14.648,-3.63,-2.35,-0.55,4.35
14.658,-3.78,-4.08,0.64,5.60
14.668,-2.74,-4.85,0.62,5.61
14.677,-2.41,-4.91,0.12,5.47
14.687,-1.54,-3.77,0.43,4.10
14.698,-0.19,-2.94,0.93,3.09
14.707,1.06,-1.59,1.02,2.16
14.718,1.65,-0.65,0.85,1.96
14.727,1.52,-0.12,-0.01,1.52
14.737,1.24,0.75,-0.97,1.74
14.747,1.08,1.29,-1.61,2.33
14.757,0.88,1.34,-1.68,2.32
14.767,0.65,0.89,-1.17,1.60
14.778,0.77,0.88,-0.51,1.27
14.787,0.92,0.55,-0.40,1.14
14.798,0.65,-0.13,-0.19,0.69
14.807,0.01,-0.97,0.17,0.98
14.818,-0.64,-1.58,0.40,1.75
14.827,-0.82,-1.33,0.68,1.71
14.837,-0.80,-1.12,1.19,1.82
14.847,-1.12,-0.75,1.73,2.19
14.857,-1.79,0.03,2.06,2.73
14.867,-2.84,0.60,3.15,4.29
14.877,-3.21,1.15,3.56,4.93
14.887,-2.72,1.23,2.65,3.99
14.897,-2.34,0.38,1.99,3.10
14.907,-1.44,-1.06,1.78,2.52
14.917,-0.77,-2.45,1.29,2.88
14.927,-0.64,-2.51,1.03,2.79
14.937,-0.29,-1.48,0.44,1.57
14.947,0.05,0.37,-0.67,0.77
14.957,-0.18,3.28,-1.63,3.66
14.967,-0.78,6.79,-2.10,7.15
14.977,-0.47,8.99,-2.14,9.26
14.987,0.63,7.06,-1.57,7.26
14.997,3.02,5.28,-2.39,6.54
15.007,5.34,3.61,-4.42,7.82
15.017,5.84,0.31,-5.55,8.06
15.027,4.97,-1.88,-5.28,7.49
15.037,3.96,-1.04,-3.72,5.53
15.047,4.13,0.20,-2.01,4.60
15.057,5.04,0.67,-1.45,5.29
15.067,4.66,-0.57,-1.12,4.83
15.077,3.41,-0.64,-1.44,3.76
15.087,2.29,0.04,-1.36,2.66
15.097,1.54,1.26,-1.14,2.29
15.107,1.04,1.10,-0.22,1.53
15.117,0.79,0.02,0.47,0.92
15.127,0.96,-0.86,1.33,1.85
15.137,1.09,-1.38,1.53,2.33
15.147,1.10,-1.36,1.71,2.44
15.157,1.12,-1.02,1.93,2.46
15.167,0.99,-0.79,1.73,2.15
15.177,0.49,-0.18,1.67,1.75
15.187,0.29,-0.30,1.80,1.85
15.197,0.28,-0.95,1.40,1.72
15.207,0.31,-1.62,0.90,1.88
15.217,0.59,-1.90,0.81,2.15
15.227,0.79,-1.62,0.45,1.86
15.237,0.80,-0.66,-0.29,1.08
15.247,0.80,-0.03,-0.77,1.11
15.257,0.97,-0.01,-0.36,1.03
15.266,0.85,-0.45,0.23,0.98
15.277,0.13,-0.60,0.86,1.06
15.287,-0.57,-0.50,1.28,1.49
15.297,-0.57,-0.65,1.44,1.68
15.307,-0.41,-0.94,1.47,1.80
15.316,-0.41,-1.10,1.39,1.82
15.327,-0.27,-1.27,1.57,2.04
15.337,-0.27,-1.73,1.80,2.51
15.347,-0.28,-2.18,2.01,2.98
15.356,-0.42,-2.72,2.26,3.56
15.366,-0.37,-3.11,2.45,3.98
15.376,-0.28,-2.71,2.23,3.52
15.386,-0.04,-1.84,1.92,2.66
15.397,0.07,-0.70,1.75,1.88
15.406,-0.12,0.29,1.64,1.67
15.417,-0.88,0.97,1.40,1.92
15.426,-1.52,1.48,1.30,2.49
15.437,-1.93,1.46,1.40,2.79
15.446,-2.19,1.03,1.36,2.77
15.456,-2.13,0.14,1.44,2.57
15.467,-1.99,-0.28,1.29,2.39
15.476,-1.58,0.09,1.25,2.02
15.486,-0.90,0.86,1.22,1.74
15.496,-0.21,1.46,1.20,1.91
15.506,-0.10,1.51,0.82,1.72
15.516,0.38,1.22,0.30,1.31
15.526,1.10,0.90,-0.13,1.43
15.536,1.73,1.05,-1.21,2.35
15.546,1.85,1.05,-2.57,3.33
15.556,2.67,-0.39,-3.20,4.19
15.566,2.67,-1.14,-3.88,4.85
15.576,2.16,-1.21,-4.07,4.76
15.586,2.20,-0.45,-3.79,4.40
15.596,2.71,1.27,-3.47,4.58
15.606,2.86,2.86,-3.23,5.17
15.616,2.85,3.22,-2.85,5.16
15.626,2.10,3.79,-3.00,5.28
15.636,0.30,3.69,-3.75,5.27
15.646,-0.72,2.65,-4.09,4.92
15.656,0.10,2.37,-3.35,4.10
15.666,-0.51,3.43,-3.39,4.85
15.676,-1.67,3.24,-3.14,4.81
15.686,-2.32,1.63,-2.63,3.87
15.696,-2.02,0.71,-2.47,3.27
15.706,-1.67,0.11,-2.06,2.65
15.716,-1.47,-0.50,-2.06,2.58
15.726,-0.88,-0.13,-1.94,2.14
15.736,-0.62,-1.07,-0.95,1.56
15.746,-0.96,-1.27,0.17,1.60
15.756,-0.92,-0.12,0.54,1.08
15.766,-0.35,0.44,-0.05,0.57
15.776,0.17,0.76,-0.92,1.20
15.786,0.73,1.00,-0.95,1.56
15.796,0.69,1.40,-0.35,1.60
15.806,0.80,1.53,-0.42,1.78
15.816,0.84,1.14,-1.17,1.83
15.825,1.08,0.71,-1.43,1.93
15.836,1.10,0.61,-1.34,1.84
15.846,1.13,0.29,-1.04,1.56
15.856,1.22,0.21,-0.87,1.51
15.866,1.42,0.45,-0.74,1.67
15.876,1.54,1.21,-0.58,2.04
15.886,1.70,1.28,-0.43,2.17
15.896,1.54,1.21,-0.25,1.98
15.906,1.13,1.41,0.14,1.82
15.916,0.70,1.32,0.49,1.57
15.926,0.39,1.32,0.40,1.43
15.936,0.09,1.04,0.13,1.05
15.946,-0.14,0.75,0.03,0.76
15.955,-0.43,0.90,0.27,1.03
15.965,-0.74,0.64,0.29,1.02
15.975,-0.94,0.49,0.36,1.12
15.986,-1.03,1.35,0.61,1.80
15.995,-0.61,0.64,-2.96,3.09
16.005,-0.93,1.25,-1.30,2.03
16.016,-1.62,3.26,0.57,3.68
16.026,-1.91,2.33,-1.26,3.27
16.036,-2.30,1.10,-3.24,4.12
16.045,-2.73,1.02,-3.17,4.31
16.056,-2.59,1.08,-3.28,4.32
16.065,-2.29,1.10,-3.86,4.62
16.076,-2.22,1.23,-4.46,5.13
16.086,-2.12,1.10,-4.38,4.99
16.095,-1.94,1.14,-3.76,4.38
16.105,-1.63,1.83,-3.22,4.05
16.116,-1.72,2.16,-2.48,3.71
16.125,-2.06,1.92,-2.13,3.53
16.135,-2.25,1.51,-2.02,3.38
16.145,-2.23,1.61,-2.07,3.44
16.155,-2.03,2.45,-2.05,3.79
16.165,-1.62,2.44,-2.14,3.63
16.175,-0.56,2.88,-3.66,4.69
16.185,0.23,2.53,-6.07,6.58
16.195,-0.24,1.91,-3.88,4.33
16.205,-0.73,1.70,-1.31,2.27
16.215,-1.06,1.67,1.47,2.47
16.225,-1.79,1.01,-0.07,2.06
16.235,-2.13,-0.20,-1.01,2.36
16.245,-2.20,-0.03,-1.07,2.45
16.255,-3.06,0.85,-0.76,3.27
16.265,-3.74,0.18,0.27,3.76
16.275,-4.31,0.26,1.26,4.50
16.285,-5.06,0.84,2.47,5.70
16.296,-5.51,0.16,3.34,6.44
16.305,-6.15,-0.44,3.98,7.34
16.315,-6.52,-0.91,4.43,7.94
16.325,-6.44,-1.22,4.49,7.95
16.335,-6.08,-1.24,4.19,7.49
16.345,-5.80,-1.05,4.17,7.22
16.355,-5.54,-0.87,4.09,6.95
16.365,-5.48,-1.02,4.47,7.15
16.375,-5.43,-0.94,4.98,7.43
16.385,-5.19,-0.82,5.83,7.85
16.395,-4.91,-1.37,6.67,8.40
16.405,-4.42,-1.53,6.86,8.30
16.415,-3.77,-1.65,6.66,7.83
16.425,-2.95,-1.48,6.10,6.93
16.435,-2.26,-0.87,5.64,6.14
16.445,-1.97,-0.48,5.57,5.92
16.455,-1.73,-0.09,5.45,5.72
16.465,-1.56,0.36,5.30,5.54
16.475,-1.71,0.33,5.16,5.45
16.485,-2.05,-0.29,4.96,5.38
16.495,-2.22,-1.03,4.74,5.33
16.505,-2.27,-1.76,4.46,5.31
16.515,-2.34,-2.38,4.04,5.24
16.525,-2.28,-2.81,4.12,5.48
16.535,-1.98,-2.71,4.45,5.58
16.545,-1.48,-2.79,4.65,5.62
16.555,-0.87,-2.99,4.64,5.59
16.565,-0.18,-3.33,4.22,5.38
16.575,0.61,-3.21,3.84,5.04
16.585,1.11,-2.65,3.55,4.57
16.595,1.51,-2.53,3.36,4.47
16.605,1.81,-2.45,3.61,4.72
16.615,1.96,-2.44,3.69,4.84
16.625,2.02,-2.36,3.80,4.91
16.634,2.04,-2.12,4.08,5.03
16.644,2.02,-1.98,4.13,5.01
16.654,1.92,-1.73,3.50,4.35
16.664,1.90,-1.97,2.30,3.58
16.674,1.74,-2.49,1.31,3.31
16.685,1.16,-4.08,1.29,4.43
16.694,1.22,-3.86,1.58,4.35
16.704,1.09,-2.95,1.56,3.51
16.714,0.94,-3.01,1.23,3.39
16.724,0.95,-3.09,0.99,3.38
16.734,1.09,-2.69,0.66,2.97
16.744,1.36,-2.50,1.01,3.02
16.754,2.37,-1.65,1.26,3.16
16.764,3.36,-0.73,1.93,3.94
16.774,3.13,-0.96,2.46,4.10
16.784,4.47,0.16,2.26,5.01
16.794,3.52,-0.43,2.51,4.35
16.804,1.92,-1.74,2.22,3.41
16.814,1.08,-2.42,1.77,3.19
16.824,0.67,-2.60,1.24,2.96
16.834,0.30,-2.66,0.80,2.79
16.844,0.35,-1.91,1.79,2.64
16.854,1.10,-1.04,0.67,1.66
16.864,1.08,-1.06,-0.05,1.51
16.874,1.39,-0.40,0.56,1.54
16.884,2.05,0.04,1.01,2.28
16.894,2.65,0.11,1.60,3.09
16.904,2.89,-0.91,1.75,3.50
16.914,2.25,-1.98,1.77,3.48
16.924,1.61,-2.24,1.85,3.32
16.934,1.16,-1.60,2.03,2.83
16.944,1.03,-0.99,2.04,2.49
16.954,1.22,-0.63,1.61,2.12
16.964,1.48,-0.55,1.24,2.01
16.974,1.48,-0.42,0.93,1.80
16.984,1.07,-0.42,0.64,1.32
16.994,0.52,-0.48,0.54,0.89
17.004,0.04,-0.33,0.48,0.58
17.014,-0.26,-0.19,0.67,0.75
17.024,-0.53,-0.09,1.12,1.24
17.034,-0.62,-0.06,1.48,1.61
17.044,-0.47,-0.25,1.72,1.80
17.054,-0.34,-0.61,1.62,1.76
17.064,-0.43,-0.96,1.53,1.86
17.074,-0.75,-1.15,1.67,2.16
17.085,-1.01,-1.01,1.66,2.19
17.094,-1.03,-0.75,-1.01,1.62
17.104,-0.53,0.16,-1.18,1.30
17.114,-0.24,-0.30,2.03,2.06
17.124,-1.08,-1.02,4.03,4.29
17.134,-1.32,-0.82,4.59,4.84
17.144,-1.27,-0.46,4.30,4.50
17.154,-1.16,-0.55,3.62,3.84
17.164,-0.74,-1.09,2.64,2.95
17.174,-1.04,-1.39,2.97,3.44
