time,ax,ay,az,atotal
0.000,1.08,-1.27,-0.15,1.67
0.010,1.35,-1.60,-1.09,2.36
0.020,1.36,-1.96,-1.81,2.99
0.030,0.61,-2.77,-1.26,3.11
0.040,0.55,-2.28,-0.32,2.36
0.050,0.70,-1.69,-0.13,1.83
0.060,0.87,-1.41,0.29,1.68
0.070,1.20,-1.40,0.81,2.02
0.080,1.50,-1.68,1.40,2.65
0.090,1.77,-2.00,1.45,3.04
0.100,1.95,-2.25,0.88,3.10
0.110,2.13,-2.37,0.17,3.19
0.120,2.28,-2.35,-0.64,3.34
0.130,2.40,-2.41,-1.50,3.72
0.140,2.46,-2.37,-1.68,3.81
0.150,2.08,-2.36,-1.22,3.37
0.160,1.28,-2.11,-0.17,2.47
0.170,0.66,-1.65,1.00,2.04
0.180,0.77,-0.90,1.27,1.74
0.190,1.01,-0.27,1.32,1.69
0.200,0.76,-0.20,1.49,1.69
0.210,0.75,-0.15,1.47,1.65
0.220,0.16,-0.24,1.06,1.10
0.230,-0.98,0.12,1.08,1.46
0.240,-1.64,1.01,0.92,2.13
0.249,-1.29,2.10,0.16,2.47
0.260,-0.97,2.73,-0.53,2.95
0.270,-0.80,2.59,-0.56,2.77
0.279,-0.52,1.82,0.11,1.90
0.290,-0.60,0.87,0.96,1.43
0.299,-0.86,-0.12,1.80,2.00
0.310,-1.30,-1.25,2.08,2.76
0.320,-1.48,-1.61,1.88,2.88
0.329,-1.50,-1.54,0.81,2.29
0.340,-1.42,-1.37,-0.47,2.03
0.349,-1.32,-0.99,-1.76,2.42
0.360,-0.75,-0.43,-2.64,2.78
0.370,-0.37,-0.21,-3.00,3.04
0.379,-0.48,-0.20,-2.32,2.38
0.389,-0.44,-0.27,-1.15,1.26
0.399,-0.38,-0.56,-0.06,0.68
0.409,-0.23,-0.96,0.71,1.21
0.419,-0.12,-1.13,1.10,1.58
0.429,0.30,-1.25,1.11,1.70
0.439,3.41,-2.88,1.66,4.76
0.449,1.33,-2.44,2.98,4.07
0.459,1.07,-1.16,2.23,2.73
0.469,1.01,0.31,1.30,1.68
0.479,0.49,1.47,0.81,1.75
0.489,0.07,1.13,0.70,1.33
0.499,-0.34,0.28,1.07,1.16
0.509,-0.90,-0.49,0.99,1.42
0.519,-1.07,-0.63,0.61,1.38
0.529,-1.32,-0.37,0.38,1.42
0.539,-1.76,-0.20,-0.05,1.77
0.549,-2.62,0.99,-0.84,2.92
0.559,-5.24,2.84,0.27,5.97
0.569,-10.12,2.56,-1.41,10.54
0.579,-2.07,-1.28,2.09,3.21
0.589,1.01,-2.42,2.05,3.33
0.599,0.59,-1.36,-2.00,2.49
0.609,-0.32,-1.09,-3.33,3.52
0.619,-0.06,-1.38,-1.85,2.31
0.629,0.68,-0.88,-1.35,1.75
0.639,1.19,-0.16,-1.84,2.20
0.649,1.51,-0.18,-2.29,2.75
0.659,1.71,-0.02,-2.31,2.87
0.669,1.10,1.05,-1.37,2.05
0.679,-0.13,2.77,0.68,2.85
0.689,-0.36,2.82,1.00,3.02
0.699,0.03,3.39,0.42,3.42
0.709,-0.80,3.90,-0.06,3.98
0.719,0.09,4.58,1.98,4.99
0.729,0.89,3.36,3.27,4.77
0.739,1.39,3.09,-0.72,3.47
0.749,2.53,2.92,-1.98,4.34
0.759,3.09,3.11,-3.09,5.36
0.769,3.83,3.19,-2.14,5.42
0.779,4.30,2.01,0.10,4.74
0.789,3.46,0.54,-0.94,3.63
0.799,3.29,-0.07,-1.19,3.50
0.809,3.83,-0.20,-0.11,3.83
0.819,4.12,-0.29,0.26,4.14
0.829,4.43,-0.30,-0.31,4.45
0.839,4.80,-0.43,-0.68,4.86
0.849,5.03,-0.90,-0.42,5.13
0.859,4.77,-0.88,-2.20,5.33
0.869,4.83,-0.23,-0.90,4.92
0.879,4.66,-1.12,0.39,4.81
0.889,5.04,-2.09,0.93,5.53
0.899,5.40,-1.79,1.57,5.90
0.909,4.84,-1.05,1.48,5.17
0.919,4.34,-0.30,1.27,4.53
0.929,4.13,0.19,1.84,4.53
0.939,3.37,0.47,2.75,4.38
0.949,2.40,1.02,4.20,4.94
0.959,0.99,1.83,6.01,6.36
0.968,0.25,2.73,7.57,8.05
0.979,-0.00,3.73,8.57,9.35
0.988,-0.43,3.69,9.39,10.10
0.999,-1.57,3.18,9.79,10.42
1.008,-2.79,2.64,8.54,9.37
1.018,-2.57,2.23,7.26,8.02
1.028,-2.22,1.44,6.79,7.28
1.038,-1.91,0.38,7.05,7.32
1.048,-2.22,1.04,6.31,6.77
1.058,-2.32,2.34,5.47,6.38
1.068,-2.65,3.27,3.88,5.73
1.079,-2.38,3.15,3.00,4.95
1.088,-2.27,2.12,2.23,3.83
1.098,-2.09,0.95,1.71,2.86
1.108,-2.03,0.15,0.90,2.22
1.118,-1.79,-0.28,0.34,1.84
1.128,-1.35,-0.44,-0.14,1.43
1.138,-1.02,-0.55,-0.57,1.29
1.148,-0.94,-0.62,-1.19,1.64
1.158,-1.15,-0.95,-1.70,2.26
1.168,-1.02,-1.71,-1.60,2.55
1.178,-1.77,-2.26,-0.66,2.94
1.188,-3.25,-2.12,-0.07,3.88
1.198,-3.11,-2.22,-0.84,3.91
1.208,-3.51,-2.23,-0.79,4.23
1.218,-3.47,-2.39,0.38,4.23
1.228,-2.82,-1.93,0.81,3.51
1.238,-2.69,-0.71,0.23,2.79
1.248,-2.79,0.06,-0.39,2.81
1.258,-2.56,0.21,-0.34,2.59
1.268,-2.38,0.11,0.07,2.39
1.278,-2.42,0.11,0.46,2.47
1.288,-2.49,0.15,1.13,2.74
1.298,-2.66,0.14,1.33,2.97
1.308,-2.53,0.16,1.34,2.86
1.318,-1.98,0.24,1.51,2.50
1.328,-1.62,0.56,1.95,2.60
1.338,-1.34,0.57,2.30,2.72
1.348,-1.36,0.47,1.86,2.35
1.358,-1.16,0.07,2.07,2.38
1.368,-1.21,-0.19,1.86,2.22
1.378,-1.19,0.01,1.98,2.31
1.388,-1.54,0.43,1.31,2.07
1.398,-1.85,0.72,0.15,1.99
1.408,-1.66,0.68,-0.66,1.92
1.418,-1.62,0.40,-0.91,1.90
1.428,-1.67,0.10,-0.61,1.78
1.438,-1.57,-0.17,0.12,1.59
1.448,-1.77,-0.32,0.31,1.83
1.458,-1.95,-0.54,0.31,2.05
1.468,-1.77,-0.64,0.25,1.90
1.478,-1.37,-0.57,0.11,1.49
1.488,-0.87,-0.55,-0.24,1.06
1.498,-0.73,-0.48,-0.60,1.06
1.508,-0.68,-0.43,-0.29,0.86
1.518,-0.58,-0.39,0.58,0.91
1.528,-0.53,0.10,1.08,1.20
1.538,-0.35,0.97,1.50,1.82
1.548,-0.16,1.68,1.20,2.07
1.557,-0.03,1.53,0.82,1.74
1.568,0.17,0.98,0.43,1.09
1.578,0.12,0.63,-0.29,0.71
1.588,0.30,0.29,-0.91,1.00
1.598,0.37,-0.20,-1.16,1.24
1.608,0.49,-0.67,-1.26,1.51
1.618,0.75,-0.81,-1.35,1.75
1.628,1.29,-0.94,-1.37,2.10
1.638,1.57,-0.92,-1.54,2.38
1.648,1.53,-0.84,-1.81,2.52
1.658,1.51,-0.78,-2.00,2.62
1.668,1.37,-0.50,-2.00,2.47
1.678,1.35,-0.10,-1.45,1.98
1.688,0.78,-0.06,-0.71,1.06
1.697,-0.13,-0.45,0.07,0.47
1.707,-1.49,-1.05,1.01,2.08
1.718,-2.93,-1.42,1.63,3.64
1.727,-3.83,-1.09,1.98,4.44
1.737,-3.75,0.42,2.01,4.28
1.748,-2.78,2.14,1.78,3.93
1.757,-0.34,2.30,1.00,2.53
1.768,1.99,1.83,0.86,2.84
1.778,2.91,1.07,-2.23,3.82
1.787,2.02,-1.96,-2.66,3.87
1.797,1.69,-2.16,-0.65,2.82
1.807,0.48,-0.41,0.90,1.10
1.817,-0.21,1.00,2.52,2.72
1.827,-0.57,1.52,2.99,3.40
1.837,-0.78,1.53,2.70,3.20
1.847,-1.08,1.35,1.74,2.45
1.857,-1.49,0.66,0.75,1.80
1.867,-1.56,0.16,0.26,1.59
1.877,-0.87,0.61,-0.12,1.07
1.887,0.07,1.66,-0.93,1.91
1.897,0.53,2.00,-1.66,2.65
1.907,1.11,2.21,-1.89,3.12
1.917,1.56,2.58,-1.68,3.45
1.927,1.92,2.70,-0.94,3.44
1.937,2.21,2.95,-0.15,3.69
1.947,2.26,2.90,0.58,3.72
1.957,2.52,2.40,1.49,3.79
1.967,1.22,0.31,3.12,3.36
1.977,-0.46,0.44,3.58,3.63
1.987,-1.28,0.20,2.72,3.01
1.997,-1.89,-2.00,0.83,2.88
2.007,-2.62,-4.65,-1.24,5.48
2.017,-3.45,-6.57,-1.64,7.60
2.027,-4.61,-6.62,-1.49,8.20
2.037,-4.73,-5.29,-1.70,7.30
2.047,-2.92,-3.18,-1.28,4.50
2.057,-1.77,-2.47,-0.13,3.04
2.067,-1.77,-2.43,0.34,3.03
2.077,-1.73,-2.58,-0.01,3.11
2.087,-0.81,-1.58,-0.66,1.89
2.097,0.69,-0.20,-0.44,0.84
2.107,1.64,-0.23,0.03,1.65
2.117,0.24,-3.49,-0.06,3.50
2.127,-0.82,-6.34,-1.45,6.56
2.137,-0.19,-6.11,-2.95,6.78
2.147,2.89,-0.82,-2.26,3.76
2.157,4.71,2.62,0.35,5.40
2.167,3.62,2.21,2.53,4.94
2.177,1.83,1.04,3.02,3.68
2.187,0.34,-0.01,2.47,2.50
2.196,-0.81,-0.96,1.77,2.17
2.207,-1.19,-1.01,0.87,1.79
2.217,-1.24,-1.63,0.00,2.05
2.227,-1.09,-2.69,-0.68,2.98
2.237,-0.81,-2.07,-1.72,2.81
2.247,-0.73,-0.39,-2.55,2.68
2.257,-0.45,2.00,-2.49,3.22
2.267,-0.33,2.99,-1.59,3.40
2.277,-0.74,2.09,-0.52,2.28
2.287,-1.17,1.86,-0.33,2.23
2.297,-1.65,2.97,0.25,3.41
2.306,-2.24,3.36,0.94,4.15
2.317,-2.04,2.58,0.63,3.35
2.326,-1.51,1.41,-0.06,2.07
2.337,-0.83,-0.52,-0.65,1.17
2.347,-0.51,-1.91,-1.81,2.68
2.356,-0.49,-1.36,-2.90,3.24
2.366,0.10,-0.37,-3.57,3.59
2.376,0.49,-0.78,-4.65,4.74
2.386,0.56,0.12,-3.54,3.59
2.396,0.52,1.93,-1.28,2.38
2.406,-0.50,2.99,-0.53,3.08
2.416,-1.10,3.44,1.27,3.83
2.426,-1.40,3.19,3.47,4.92
2.436,-1.70,2.68,4.09,5.17
2.446,-2.70,3.05,7.18,8.26
2.457,-3.52,4.01,8.48,10.02
2.466,-3.16,4.46,6.40,8.42
2.476,-2.21,1.99,3.18,4.35
2.486,-0.38,0.79,1.77,1.97
2.496,1.36,0.94,1.04,1.95
2.506,1.27,1.29,-0.48,1.88
2.516,0.67,1.32,-1.51,2.11
2.526,0.38,0.57,-0.21,0.71
2.536,0.61,-1.32,2.55,2.93
2.546,0.62,-2.21,3.51,4.19
2.556,0.58,-2.31,3.46,4.20
2.566,0.71,-2.09,2.75,3.53
2.576,0.30,-1.81,0.60,1.93
2.586,-0.34,-1.64,-1.92,2.55
2.596,-0.68,-1.41,-4.99,5.23
2.606,-0.74,-1.41,-6.97,7.15
2.616,-0.85,-1.76,-5.78,6.10
2.626,-0.20,-2.19,-4.34,4.87
2.636,-0.09,-2.29,-3.59,4.26
2.646,-0.55,-4.62,-0.91,4.74
2.656,-1.16,-6.04,0.87,6.21
2.666,-1.27,-5.47,0.77,5.67
2.676,-0.64,-3.78,-0.17,3.84
2.686,0.10,-1.61,-0.87,1.83
2.696,0.51,-0.57,-2.02,2.16
2.706,0.49,-0.54,-3.24,3.32
2.716,0.21,-0.89,-3.55,3.66
2.726,0.05,-0.80,-3.15,3.25
2.736,0.08,-0.39,0.23,0.46
2.746,0.04,0.52,6.51,6.53
2.756,0.18,1.15,10.86,10.92
2.766,-0.26,0.92,9.33,9.38
2.776,-1.04,0.86,5.94,6.10
2.786,-1.08,0.26,4.23,4.37
2.796,-1.24,-0.64,2.19,2.60
2.806,-1.43,-0.39,-0.12,1.49
2.816,-1.22,0.49,-0.86,1.58
2.826,-1.05,2.48,-0.99,2.87
2.836,-1.60,6.18,-1.27,6.51
2.846,-2.13,9.94,-1.91,10.34
2.856,-2.16,6.81,-1.04,7.22
2.866,-1.39,-2.10,1.36,2.86
2.876,-0.54,-4.87,3.96,6.30
2.886,-0.97,0.12,4.11,4.23
2.896,-1.31,4.54,0.85,4.80
2.906,-1.03,3.64,-1.44,4.04
2.916,-0.51,2.01,-1.66,2.66
2.926,-0.18,1.91,-1.21,2.27
2.936,-0.17,1.47,-0.94,1.75
2.946,-0.73,1.32,-0.88,1.75
2.955,-1.39,1.15,-0.70,1.94
2.966,-1.73,0.37,0.09,1.77
2.976,-2.17,-0.16,0.71,2.29
2.986,-2.43,-0.04,1.15,2.69
2.996,-2.61,0.25,1.10,2.84
3.005,-2.65,0.29,1.11,2.89
3.015,-2.83,0.53,0.70,2.97
3.025,-3.06,0.43,1.20,3.31
3.036,-3.88,0.20,3.30,5.10
3.045,-4.19,0.74,6.93,8.13
3.055,2.01,0.51,4.51,4.97
3.065,5.97,-1.63,-0.48,6.21
3.076,4.40,-2.16,-3.60,6.08
3.085,-0.61,-0.96,-2.93,3.15
3.095,-2.01,-0.62,-1.65,2.67
3.105,-0.97,-0.61,-0.09,1.15
3.115,-0.24,-0.77,0.76,1.11
3.125,-0.21,-0.19,1.62,1.64
3.135,-0.44,0.03,2.11,2.16
3.145,-0.43,0.23,1.92,1.98
3.155,-0.26,0.22,1.33,1.38
3.165,-0.14,0.15,1.20,1.21
3.175,-0.22,0.09,1.35,1.38
3.185,-0.36,-0.05,1.31,1.36
3.195,-0.50,-0.21,1.06,1.19
3.205,-0.68,-0.37,0.94,1.22
3.215,-0.83,-0.37,1.05,1.39
3.225,-0.95,-0.30,1.10,1.48
3.235,-1.00,-0.22,1.16,1.54
3.245,-1.03,-0.17,1.05,1.48
3.255,-1.01,-0.16,1.08,1.49
3.265,-0.97,-0.08,1.08,1.45
3.275,-0.92,-0.05,1.11,1.44
3.285,-0.91,-0.02,1.13,1.46
3.295,-0.90,0.01,1.07,1.40
3.305,-0.90,0.03,1.03,1.37
3.315,-0.93,0.06,1.03,1.39
3.325,-1.00,0.07,1.15,1.53
3.335,-1.08,0.08,1.33,1.72
3.345,-1.18,0.16,1.45,1.88
3.355,-1.29,0.31,1.57,2.05
3.365,-1.38,0.44,1.59,2.15
3.375,-1.57,0.64,1.51,2.27
3.385,-1.85,0.92,1.44,2.52
3.395,-2.13,0.91,1.45,2.74
3.405,-2.32,1.11,1.54,2.99
3.415,-2.41,1.18,1.73,3.19
3.425,-2.43,1.15,2.02,3.37
3.435,-2.49,0.97,2.32,3.54
3.445,-2.52,0.73,2.50,3.62
3.455,-2.54,0.47,2.53,3.62
3.465,-2.40,0.42,2.23,3.30
3.475,-2.05,0.93,1.25,2.57
3.485,-1.30,1.88,0.22,2.30
3.495,-0.25,3.36,-0.45,3.40
3.505,0.65,4.91,-0.92,5.04
3.515,1.14,5.71,-1.40,5.99
3.525,1.57,5.19,-1.65,5.66
3.535,2.24,3.29,-1.24,4.17
3.545,2.64,0.70,-0.77,2.83
3.554,2.24,-1.46,-0.98,2.84
3.565,1.43,-2.63,-1.50,3.35
3.575,0.68,-2.67,-1.49,3.13
3.585,0.29,-2.58,-0.97,2.77
3.595,0.28,-2.70,-0.38,2.74
3.605,0.48,-2.93,0.11,2.98
3.615,0.68,-2.89,0.31,2.99
3.625,0.97,-2.07,0.35,2.31
3.635,1.50,-0.90,0.29,1.77
3.645,2.05,-0.04,0.21,2.07
3.655,2.56,1.11,0.28,2.81
3.664,2.75,1.85,0.61,3.37
3.674,2.61,2.02,0.96,3.44
3.684,2.32,1.67,1.17,3.08
3.694,2.05,0.87,1.27,2.56
3.704,1.76,-0.16,1.48,2.31
3.715,1.31,-0.95,1.69,2.34
3.724,0.57,-1.26,1.74,2.22
3.734,-0.07,-1.57,2.12,2.64
3.744,-0.36,-1.97,2.43,3.15
3.754,-0.39,-2.22,2.66,3.48
3.764,-0.23,-2.42,2.88,3.77
3.774,-0.06,-2.47,2.87,3.78
3.784,0.03,-2.21,2.55,3.37
3.794,0.08,-1.70,2.08,2.69
3.804,0.04,-0.98,1.44,1.74
3.814,-0.03,0.04,0.83,0.83
3.824,0.00,0.84,0.56,1.01
3.834,0.18,1.09,0.57,1.24
3.844,0.44,1.05,0.93,1.48
3.854,0.58,0.92,1.40,1.77
3.864,0.39,0.69,1.83,1.99
3.874,-0.01,0.47,2.14,2.19
3.884,-0.43,0.33,2.36,2.42
3.894,-0.84,0.32,2.32,2.49
3.904,-1.24,0.25,2.23,2.56
3.914,-1.50,0.21,2.36,2.81
3.924,-1.74,0.03,2.57,3.10
3.934,-1.84,-0.21,2.82,3.37
3.944,-1.86,-0.36,2.76,3.35
3.954,-1.82,-0.29,2.58,3.17
3.964,-1.73,0.08,2.26,2.85
3.974,-1.90,0.64,1.95,2.79
3.984,-2.24,1.13,1.90,3.15
3.994,-2.66,1.34,2.00,3.59
4.004,-3.04,1.47,2.10,3.97
4.014,-3.29,1.56,2.25,4.28
4.024,-3.34,1.61,2.31,4.37
4.034,-3.11,1.53,1.93,3.97
4.044,-2.75,1.67,1.13,3.41
4.054,-2.43,1.94,0.18,3.12
4.064,-1.97,1.93,-0.60,2.82
4.074,-1.36,1.26,-0.97,2.10
4.084,-0.58,0.62,-1.06,1.36
4.094,0.51,0.62,-1.43,1.63
4.104,1.62,0.54,-2.51,3.04
4.114,2.30,-0.14,-2.79,3.62
4.124,2.72,-1.07,-2.22,3.68
4.134,3.06,-1.50,-1.91,3.91
4.144,3.29,-1.21,-2.04,4.05
4.154,3.52,-0.37,-2.39,4.27
4.164,3.60,0.96,-2.87,4.70
4.174,3.47,2.69,-3.40,5.56
4.184,3.00,4.19,-3.86,6.44
4.194,2.00,4.69,-3.85,6.39
4.204,0.44,4.19,-3.14,5.26
4.214,-1.74,1.96,-2.86,3.88
4.224,-3.61,-0.18,-2.60,4.45
4.234,-4.48,-1.09,-1.69,4.91
4.244,-4.72,-1.62,-1.01,5.09
4.254,-4.20,-2.59,-0.69,4.98
4.263,-3.37,-3.16,-1.05,4.74
4.274,-2.97,-2.57,-0.95,4.04
4.284,-2.97,-3.02,-0.28,4.24
4.294,-2.99,-2.98,0.04,4.22
4.304,-2.65,-2.10,0.59,3.43
4.314,-2.19,-1.79,0.78,2.93
4.324,-1.86,-1.30,0.57,2.34
4.334,-0.99,-0.26,0.54,1.15
4.344,0.39,0.93,0.56,1.15
4.353,1.68,0.75,0.69,1.96
4.364,2.46,0.35,0.76,2.60
4.373,2.59,-0.04,0.54,2.65
4.383,2.09,-0.25,0.02,2.11
4.393,1.40,0.46,-0.23,1.49
4.403,0.94,0.87,0.18,1.29
4.413,0.44,0.83,0.39,1.02
4.424,0.11,0.50,0.30,0.59
4.433,-0.26,-0.37,0.40,0.61
4.443,-0.62,-0.84,0.95,1.41
4.453,-0.98,-0.89,1.63,2.10
4.463,-1.32,-1.25,1.76,2.54
4.473,-1.65,-0.92,1.87,2.66
4.483,-2.19,0.72,2.38,3.31
4.493,-3.06,1.96,2.70,4.53
4.503,-3.84,2.84,2.55,5.42
4.513,-4.20,3.72,2.60,6.19
4.523,-3.24,3.78,3.36,6.01
4.533,-0.88,2.29,4.07,4.75
4.543,1.08,0.82,3.55,3.80
4.553,2.36,0.18,2.24,3.26
4.563,3.15,0.61,0.59,3.26
4.573,3.20,2.14,-1.08,4.00
4.583,2.98,3.54,-1.79,4.96
4.593,3.16,4.41,-1.91,5.76
4.603,4.22,4.22,-2.31,6.40
4.613,5.30,2.28,-2.47,6.27
4.623,5.25,0.07,-2.58,5.85
4.633,4.13,-1.56,-2.81,5.24
4.643,3.11,-2.29,-2.87,4.81
4.653,2.19,-2.11,-2.97,4.25
4.663,1.40,-1.43,-2.57,3.26
4.673,0.74,-0.63,-2.12,2.33
4.683,0.18,0.20,-1.69,1.71
4.693,-0.10,0.61,-1.24,1.38
4.703,-0.00,0.75,-1.15,1.37
4.713,0.30,0.87,-1.41,1.69
4.723,0.62,0.31,-1.44,1.60
4.733,0.97,-0.26,-1.17,1.55
4.743,0.79,-0.43,-0.32,0.95
4.753,0.73,-0.22,0.73,1.06
4.763,1.24,-0.38,1.77,2.19
4.773,2.07,-0.88,2.31,3.23
4.783,2.70,-1.35,2.25,3.76
4.793,2.90,-1.98,2.19,4.14
4.803,2.64,-2.53,1.92,4.13
4.813,1.90,-2.72,1.83,3.78
4.823,1.08,-2.81,2.01,3.62
4.833,0.22,-2.80,1.99,3.44
4.843,-0.32,-2.40,2.05,3.17
4.853,-0.37,-1.85,2.22,2.91
4.863,-0.09,-1.51,2.34,2.79
4.873,0.27,-1.31,1.85,2.28
4.883,0.71,-0.74,1.27,1.63
4.893,0.91,-0.14,0.90,1.29
4.903,0.67,0.11,0.99,1.21
4.913,0.35,0.00,1.57,1.61
4.923,0.00,-0.08,1.96,1.96
4.933,-0.52,-0.00,2.03,2.09
4.942,-1.10,0.04,2.05,2.33
4.953,-1.43,0.16,2.34,2.75
4.963,-1.50,0.10,2.93,3.29
4.973,-1.44,-0.24,3.64,3.92
4.983,-1.48,-0.48,3.98,4.27
4.993,-1.78,-0.46,3.72,4.15
5.003,-2.40,-0.11,3.24,4.04
5.013,-3.18,0.38,2.94,4.35
5.022,-4.06,0.84,2.69,4.94
5.033,-5.00,0.99,2.53,5.69
5.042,-5.85,0.94,2.30,6.36
5.052,-6.12,0.98,2.10,6.55
5.063,-5.97,1.00,2.00,6.38
5.072,-5.11,0.52,1.78,5.43
5.082,-3.88,-0.19,1.08,4.04
5.092,-2.99,-0.25,0.32,3.02
5.102,-2.28,0.14,-0.04,2.29
5.112,-1.52,1.02,0.34,1.86
5.122,-0.25,2.06,0.21,2.09
5.132,1.34,2.92,-1.22,3.44
5.142,3.05,2.29,-3.24,5.01
5.152,4.18,2.06,-3.88,6.06
5.162,5.23,2.62,-3.59,6.86
5.172,5.94,2.80,-3.63,7.51
5.182,5.82,2.72,-3.60,7.36
5.192,5.76,3.32,-3.71,7.61
5.202,5.81,4.47,-3.69,8.21
5.212,5.06,4.49,-3.74,7.73
5.222,3.15,3.42,-3.70,5.94
5.232,1.29,2.47,-3.39,4.39
5.242,-0.09,1.79,-3.12,3.60
5.252,-1.26,0.25,-2.95,3.22
5.262,-2.06,-1.29,-2.57,3.54
5.272,-2.69,-2.70,-1.69,4.17
5.282,-3.12,-2.90,-1.65,4.57
5.292,-2.93,-2.49,-1.66,4.19
5.302,-2.92,-2.23,-0.48,3.71
5.312,-3.29,-2.76,1.10,4.43
5.322,-3.75,-3.51,2.01,5.52
5.332,-3.67,-3.13,2.60,5.48
5.342,-2.95,-2.83,2.87,5.00
5.352,-1.79,-2.47,2.81,4.15
5.362,-0.37,-1.63,2.65,3.13
5.372,1.06,-0.47,1.98,2.30
5.382,1.94,0.22,0.89,2.15
5.392,2.21,0.27,-0.35,2.26
5.402,2.07,0.36,-1.55,2.61
5.412,1.60,0.62,-2.14,2.74
5.422,1.15,0.63,-1.78,2.21
5.432,1.05,0.30,-1.00,1.48
5.442,1.12,-0.19,-0.58,1.27
5.452,1.08,-0.24,-0.53,1.23
5.462,0.95,-0.28,0.04,0.99
5.472,0.80,-0.53,1.03,1.41
5.482,0.54,-0.51,1.84,1.99
5.492,-0.21,-0.70,2.00,2.13
5.502,-1.24,-0.15,1.85,2.23
5.512,-2.27,1.12,2.12,3.30
5.522,-2.86,2.00,2.85,4.50
5.532,-2.83,2.35,2.99,4.74
5.542,-1.76,1.61,2.58,3.51
5.552,-0.03,-0.27,2.73,2.75
5.562,1.54,-2.02,2.72,3.72
5.572,2.49,-3.24,1.96,4.53
5.582,2.47,-2.79,1.28,3.94
5.591,2.04,0.09,0.84,2.21
5.602,2.14,3.62,0.06,4.21
5.612,2.28,7.02,-1.49,7.53
5.622,2.51,9.19,-3.60,10.19
5.632,3.30,9.23,-4.00,10.59
5.642,5.25,7.91,-3.43,10.09
5.652,6.75,5.23,-3.32,9.16
5.662,5.60,0.99,-3.35,6.60
5.672,3.99,-1.81,-3.31,5.50
5.682,3.73,-2.60,-2.45,5.17
5.692,3.91,-2.88,-1.02,4.96
5.702,3.71,-2.44,-0.09,4.44
5.712,2.81,-1.18,0.34,3.07
5.722,1.25,0.22,0.37,1.33
5.731,-0.28,0.80,0.29,0.90
5.741,-1.47,0.90,0.43,1.78
5.751,-2.24,0.75,0.56,2.43
5.762,-2.58,0.31,0.63,2.67
5.771,-2.59,-0.79,1.05,2.91
5.781,-2.20,-1.95,2.11,3.62
5.791,-1.48,-2.64,2.59,3.98
5.802,-0.77,-3.39,2.36,4.20
5.811,0.05,-3.74,2.25,4.37
5.821,0.98,-3.63,2.39,4.46
5.831,1.43,-3.04,1.95,3.88
5.841,1.10,-2.51,1.23,3.01
5.851,0.77,-1.44,1.08,1.96
5.861,0.80,-0.62,1.08,1.48
5.871,1.04,-0.38,0.93,1.44
5.881,1.60,0.23,0.62,1.73
5.891,2.08,0.69,0.55,2.26
5.901,2.04,0.64,0.90,2.32
5.911,1.43,0.07,1.24,1.90
5.921,0.66,-0.75,1.61,1.90
5.931,-0.02,-1.55,1.84,2.40
5.941,-0.73,-1.97,2.03,2.92
5.951,-1.43,-1.94,2.22,3.27
5.961,-1.73,-1.63,2.66,3.57
5.971,-1.59,-1.39,3.23,3.86
5.981,-1.46,-1.14,3.42,3.89
5.991,-1.44,-0.62,3.13,3.50
6.001,-1.70,0.14,2.44,2.97
6.011,-1.81,0.94,2.39,3.14
6.021,-1.54,1.97,2.74,3.71
6.031,-1.15,2.68,3.33,4.43
6.041,-1.01,2.98,3.60,4.78
6.051,-1.18,2.48,3.60,4.53
6.061,-1.45,1.17,3.47,3.93
6.071,-1.84,-0.19,3.10,3.61
6.081,-2.06,-0.93,2.26,3.20
6.091,-2.34,-0.96,0.92,2.69
6.101,-2.67,-0.29,-0.17,2.69
6.111,-2.80,1.15,-0.37,3.05
6.121,-2.38,2.41,-0.36,3.41
6.131,-1.42,2.78,-1.59,3.50
6.141,0.09,2.06,-3.74,4.27
6.151,1.15,1.12,-4.60,4.87
6.161,2.00,0.53,-4.26,4.74
6.171,3.22,0.77,-3.71,4.97
6.181,4.57,1.86,-3.50,6.05
6.191,5.81,3.02,-3.18,7.28
6.201,6.85,3.80,-2.68,8.28
6.211,7.26,4.33,-2.71,8.88
6.221,6.15,3.80,-2.99,7.83
6.231,3.96,2.93,-3.13,5.83
6.241,2.04,1.96,-2.97,4.10
6.251,0.52,0.72,-2.72,2.86
6.261,-0.44,-0.66,-2.62,2.73
6.271,-0.68,-2.07,-2.49,3.31
6.281,-0.73,-2.86,-1.93,3.53
6.291,-1.61,-3.12,-1.44,3.79
6.301,-3.12,-3.22,-1.60,4.76
6.310,-3.88,-1.95,-0.91,4.43
6.320,-4.57,-1.84,0.53,4.96
6.331,-5.14,-2.09,1.42,5.73
6.340,-5.19,-2.78,1.55,6.09
6.351,-4.54,-2.80,1.63,5.58
6.361,-3.58,-3.05,1.62,4.97
6.371,-2.36,-2.48,1.46,3.72
6.381,-0.96,-1.37,1.24,2.08
6.390,0.40,-0.44,0.70,0.92
6.401,1.24,0.22,-0.35,1.31
6.410,1.36,0.35,-1.57,2.11
6.420,1.10,0.47,-2.28,2.57
6.430,0.43,0.61,-2.12,2.24
6.440,-0.05,0.41,-1.11,1.18
6.450,0.16,0.35,-0.11,0.40
6.460,0.44,0.83,0.19,0.96
6.470,0.47,0.78,0.29,0.95
6.480,0.32,-0.32,0.83,0.95
6.490,-0.05,-1.95,1.46,2.43
6.500,-0.70,-2.23,1.65,2.86
6.510,-1.29,-1.44,1.70,2.58
6.520,-1.90,-0.92,2.15,3.01
6.530,-2.42,-0.42,2.81,3.73
6.540,-2.42,1.04,2.84,3.87
6.550,-1.48,1.89,2.84,3.72
6.560,-0.30,0.21,3.45,3.47
6.570,0.54,-1.33,3.76,4.02
6.580,0.71,-2.12,2.65,3.46
6.590,0.29,-1.30,1.51,2.01
6.600,0.66,1.66,0.74,1.94
6.610,1.45,5.34,-0.81,5.59
6.620,1.30,8.79,-2.81,9.32
6.630,1.51,12.29,-5.03,13.36
6.642,2.88,13.64,-5.89,15.13
6.650,5.23,11.03,-5.11,13.23
6.660,7.02,5.61,-4.48,10.04
6.670,6.54,-1.12,-3.38,7.45
6.680,4.65,-5.10,-3.17,7.59
6.690,3.45,-4.71,-2.70,6.43
6.700,3.05,-2.82,-1.47,4.41
6.710,2.31,-1.59,-0.35,2.83
6.720,1.25,-0.61,0.21,1.41
6.730,0.38,0.54,0.33,0.74
6.740,-0.24,1.05,0.49,1.18
6.750,-0.36,1.24,0.59,1.42
6.760,-0.28,0.89,0.94,1.32
6.770,-0.41,0.19,1.21,1.29
6.780,-0.48,-0.63,1.60,1.79
6.790,-0.12,-1.41,2.48,2.86
6.800,0.29,-1.99,2.73,3.39
6.810,0.33,-2.63,1.93,3.28
6.820,0.18,-3.11,1.28,3.37
6.830,0.28,-3.05,1.36,3.35
6.840,0.61,-2.95,1.73,3.48
6.850,0.47,-3.46,2.03,4.04
6.860,0.36,-3.36,1.93,3.89
6.870,0.34,-3.47,1.49,3.79
6.880,0.53,-3.71,0.86,3.85
6.890,1.26,-2.58,-0.15,2.87
6.900,2.49,-0.37,-0.71,2.62
6.910,3.38,0.54,-0.20,3.43
6.920,3.80,0.64,0.78,3.94
6.930,3.44,0.87,1.65,3.91
6.940,2.14,0.70,2.40,3.29
6.950,0.49,0.28,3.03,3.09
6.960,-1.25,-0.24,3.45,3.68
6.970,-2.73,-0.79,3.62,4.60
6.980,-3.55,-1.31,3.88,5.43
6.990,-4.00,-1.67,4.04,5.93
6.999,-4.29,-1.73,4.04,6.14
7.010,-4.72,-1.64,3.53,6.12
7.019,-5.01,-1.53,3.06,6.06
7.029,-5.20,-0.71,2.30,5.73
7.040,-5.25,0.42,1.64,5.52
7.049,-5.21,1.62,1.31,5.61
7.060,-5.00,2.22,1.37,5.64
7.069,-4.70,2.18,1.47,5.39
7.080,-4.04,2.06,1.64,4.82
7.089,-3.07,2.09,1.76,4.11
7.099,-2.16,1.82,1.49,3.19
7.110,-1.58,1.06,0.80,2.06
7.119,-1.19,0.32,0.12,1.23
7.129,-0.40,0.21,-0.04,0.45
7.139,0.37,0.77,-0.30,0.91
7.149,0.81,1.20,-0.99,1.75
7.159,1.71,0.79,-2.49,3.12
7.169,2.56,0.33,-3.62,4.44
7.179,3.41,0.21,-3.79,5.10
7.189,4.78,1.13,-3.56,6.07
7.199,5.95,2.89,-3.52,7.50
7.209,6.66,4.08,-3.53,8.57
7.219,7.44,4.67,-3.49,9.46
7.229,7.69,5.11,-3.98,10.05
7.239,6.16,4.78,-4.56,9.03
7.249,3.47,3.56,-4.52,6.72
7.259,1.29,2.12,-3.86,4.59
7.269,-0.38,0.41,-3.27,3.31
7.279,-1.62,-1.28,-2.99,3.64
7.289,-1.88,-2.06,-2.31,3.62
7.299,-2.34,-2.76,-1.91,4.09
7.309,-2.98,-2.84,-2.54,4.84
7.319,-3.44,-2.88,-2.11,4.96
7.329,-3.92,-1.59,-0.29,4.24
7.339,-4.68,-1.85,1.41,5.23
7.349,-4.79,-2.32,2.14,5.74
7.359,-3.95,-2.21,2.55,5.19
7.369,-2.66,-2.71,2.42,4.50
7.379,-1.57,-2.77,1.80,3.66
7.389,-0.25,-1.57,1.30,2.05
7.399,1.10,-0.45,0.58,1.32
7.409,1.72,-0.81,-0.53,1.97
7.419,1.74,-1.27,-1.69,2.74
7.429,1.23,-1.42,-2.38,3.03
7.439,0.63,-1.17,-2.32,2.67
7.449,0.47,-0.71,-1.55,1.77
7.459,0.63,-0.44,-0.36,0.85
7.469,0.83,0.17,0.52,1.00
7.479,1.10,0.48,0.94,1.53
7.489,0.93,0.22,0.69,1.17
7.499,0.32,0.11,0.68,0.76
7.509,-0.39,-0.26,1.52,1.60
7.519,-0.81,0.02,2.24,2.38
7.529,-1.25,1.43,2.17,2.88
7.539,-2.05,2.33,2.57,4.03
7.549,-2.68,2.55,3.33,4.98
7.559,-3.09,2.35,3.24,5.06
7.569,-2.92,0.79,2.74,4.08
7.579,-1.45,-1.67,3.18,3.88
7.589,0.12,-3.26,3.37,4.69
7.599,0.99,-3.19,2.34,4.08
7.609,1.42,-0.78,0.80,1.80
7.619,1.92,3.47,-1.38,4.20
7.629,2.63,8.65,-3.35,9.65
7.639,3.61,13.19,-5.28,14.66
7.650,4.76,14.08,-6.16,16.09
7.658,6.33,11.31,-5.16,13.95
7.668,6.37,4.38,-3.71,8.58
7.679,4.88,-2.18,-2.49,5.90
7.688,3.72,-4.93,-2.46,6.65
7.699,3.35,-4.75,-2.31,6.25
7.708,3.23,-3.94,-1.61,5.34
7.719,2.01,-2.82,-1.31,3.70
7.729,0.25,-0.60,-1.11,1.29
7.739,-0.74,0.73,-0.90,1.38
7.748,-0.92,0.69,-0.40,1.22
7.758,-0.92,0.34,0.56,1.13
7.768,-0.94,0.13,1.08,1.44
7.778,-0.79,-0.13,1.31,1.53
7.788,-0.42,-0.78,1.88,2.08
7.798,0.09,-1.93,2.77,3.38
7.808,0.60,-2.76,2.84,4.00
7.818,0.82,-2.91,1.94,3.60
7.828,0.73,-2.48,1.07,2.80
7.839,0.56,-2.34,0.93,2.58
7.848,0.49,-2.24,1.32,2.64
7.858,0.58,-2.04,1.35,2.51
7.868,0.48,-2.45,1.08,2.72
7.878,0.55,-2.77,1.30,3.11
7.888,0.70,-3.03,1.39,3.40
7.898,1.01,-2.65,1.06,3.03
7.908,1.47,-1.57,0.73,2.27
7.918,1.77,-0.58,0.54,1.94
7.928,1.59,-0.33,0.74,1.78
7.938,1.04,-0.48,1.10,1.59
7.948,0.22,-0.81,1.56,1.77
7.958,-0.68,-0.98,2.22,2.52
7.968,-1.56,-0.97,2.94,3.46
7.978,-2.12,-0.98,3.72,4.39
7.988,-2.53,-0.98,4.22,5.02
7.998,-2.97,-0.76,4.39,5.35
8.008,-3.53,-0.45,4.39,5.65
8.018,-4.02,0.47,3.90,5.62
8.028,-4.16,1.59,2.87,5.30
8.038,-3.86,2.69,2.17,5.18
8.048,-3.04,3.20,2.07,4.88
8.058,-2.10,2.93,2.17,4.21
8.068,-1.71,1.99,1.98,3.28
8.078,-2.00,0.93,1.99,2.97
8.088,-2.17,0.19,2.23,3.12
8.098,-2.12,-0.25,1.91,2.86
8.108,-1.96,-0.57,0.91,2.23
8.118,-2.01,-0.77,-0.10,2.15
8.128,-1.87,-0.31,-0.51,1.96
8.138,-1.21,0.79,-0.58,1.56
8.148,-0.50,2.04,-1.61,2.65
8.158,0.68,2.54,-4.02,4.80
8.168,1.85,2.52,-5.63,6.44
8.178,2.71,2.52,-5.51,6.63
8.188,3.82,3.11,-4.76,6.85
8.198,4.55,3.58,-4.37,7.25
8.208,5.05,3.89,-4.17,7.61
8.218,5.46,4.52,-3.82,8.05
8.228,5.18,4.83,-3.62,7.95
8.238,3.84,4.09,-3.62,6.67
8.248,2.15,2.88,-3.42,4.96
8.258,0.98,1.61,-2.96,3.51
8.268,-0.31,-0.13,-2.89,2.91
8.278,-1.37,-1.47,-3.01,3.62
8.288,-1.44,-2.09,-2.48,3.55
8.297,-1.61,-2.37,-1.88,3.42
8.308,-2.82,-3.17,-1.54,4.52
8.317,-3.62,-2.87,-1.18,4.77
8.328,-4.21,-1.22,-0.31,4.40
8.338,-4.58,-1.33,1.05,4.89
8.348,-4.46,-2.45,1.80,5.40
8.357,-3.98,-3.18,1.89,5.43
8.368,-3.10,-3.42,1.97,5.02
8.378,-1.77,-3.42,1.85,4.28
8.387,-0.31,-2.53,1.42,2.92
8.398,0.88,-1.80,0.61,2.09
8.407,1.64,-1.27,-0.32,2.09
8.418,1.92,-0.63,-1.08,2.29
8.427,1.52,-0.31,-1.59,2.22
8.438,0.84,0.05,-1.61,1.82
8.447,0.37,0.43,-0.87,1.04
8.457,0.42,0.24,0.16,0.51
8.468,0.78,0.43,0.57,1.06
8.477,0.89,0.34,0.74,1.21
8.487,0.38,-1.12,1.18,1.67
8.497,-0.24,-2.23,1.85,2.91
8.507,-0.59,-1.64,2.11,2.73
8.517,-0.90,-0.43,1.81,2.07
8.527,-1.45,0.24,2.41,2.82
8.537,-1.87,1.31,3.02,3.79
8.547,-1.69,2.62,2.74,4.15
8.557,-0.80,1.79,2.51,3.18
8.567,0.15,0.14,2.91,2.92
8.577,1.00,-0.90,2.49,2.83
8.587,1.50,-1.32,1.30,2.39
8.597,1.83,-0.16,0.60,1.94
8.607,2.06,2.32,-0.04,3.10
8.617,2.21,5.71,-1.29,6.26
8.627,2.29,10.19,-3.57,11.04
8.638,3.11,12.42,-5.43,13.91
8.647,4.23,10.65,-4.69,12.38
8.657,5.68,6.99,-3.84,9.80
8.667,5.89,1.77,-4.17,7.43
8.677,4.86,-3.48,-4.45,7.46
8.687,3.51,-5.39,-4.39,7.79
8.697,3.14,-4.61,-3.07,6.37
8.707,2.99,-3.17,-1.49,4.60
8.717,2.60,-1.69,-0.29,3.12
8.727,1.95,-0.28,0.25,1.99
8.737,1.65,0.61,0.25,1.78
8.747,1.88,1.31,0.17,2.30
8.757,1.83,1.59,0.08,2.42
8.767,1.35,1.05,0.47,1.78
8.777,0.65,0.37,1.19,1.41
8.787,0.19,-0.21,1.92,1.94
8.797,-0.08,-0.83,2.45,2.59
8.807,-0.35,-1.42,2.43,2.83
8.817,-0.62,-2.02,2.15,3.02
8.827,-0.92,-2.87,2.25,3.76
8.837,-0.92,-3.37,2.59,4.35
8.847,-0.71,-3.60,2.83,4.63
8.857,-0.39,-3.76,3.05,4.86
8.867,-0.14,-3.98,2.86,4.91
8.877,0.14,-4.08,2.19,4.63
8.887,0.19,-4.49,1.52,4.74
8.897,0.55,-3.60,0.52,3.68
8.907,1.20,-0.92,-0.42,1.57
8.917,1.94,1.86,-0.60,2.76
8.927,2.26,2.41,0.41,3.33
8.937,1.78,2.03,1.12,2.92
8.947,0.85,1.43,1.40,2.18
8.957,-0.06,0.64,1.89,1.99
8.967,-1.06,-0.04,2.35,2.58
8.976,-1.88,-0.51,2.79,3.41
8.987,-2.37,-0.70,3.36,4.17
8.996,-2.57,-0.79,3.89,4.73
9.007,-2.56,-0.78,4.04,4.85
9.016,-2.55,-0.97,3.94,4.79
9.027,-2.65,-0.81,3.65,4.58
9.037,-2.74,-0.32,3.12,4.16
9.047,-2.74,0.64,2.56,3.81
9.056,-2.69,1.72,2.23,3.89
9.067,-2.52,2.57,1.95,4.09
9.077,-2.48,2.40,1.81,3.90
9.087,-2.53,1.34,1.61,3.29
9.096,-2.35,0.04,1.19,2.63
9.107,-2.18,-0.57,0.47,2.30
9.116,-2.28,-0.63,-0.02,2.37
9.126,-2.48,-0.56,-0.18,2.55
9.136,-2.37,0.11,-0.01,2.37
9.146,-1.79,1.22,0.28,2.18
9.156,-1.16,1.97,-0.57,2.36
9.166,-0.15,1.64,-2.41,2.92
9.176,0.74,0.91,-3.37,3.57
9.186,1.65,0.68,-3.01,3.49
9.196,3.27,1.45,-2.56,4.40
9.206,4.83,2.78,-2.38,6.07
9.216,5.89,3.85,-2.45,7.45
9.226,6.52,5.18,-3.04,8.87
9.236,6.51,5.66,-3.62,9.36
9.246,5.05,4.93,-3.89,8.06
9.256,2.49,3.35,-3.93,5.73
9.266,0.37,1.51,-3.80,4.11
9.276,-1.19,0.33,-3.85,4.04
9.286,-1.75,-0.18,-3.68,4.08
9.296,-1.80,-1.18,-2.85,3.57
9.306,-2.27,-2.10,-2.16,3.77
9.316,-3.10,-2.28,-2.11,4.39
9.326,-3.32,-2.57,-1.57,4.49
9.336,-3.78,-1.96,-0.06,4.26
9.346,-4.09,-1.88,1.24,4.67
9.356,-4.25,-3.32,1.86,5.71
9.366,-3.71,-3.28,2.35,5.48
9.376,-2.88,-3.41,2.48,5.11
9.386,-1.83,-3.51,2.13,4.50
9.396,-0.61,-2.91,1.78,3.46
9.406,0.79,-1.66,1.20,2.20
9.416,1.94,-1.11,0.36,2.26
9.426,2.44,-1.05,-0.83,2.79
9.436,2.29,-0.76,-1.78,2.99
9.446,1.59,-0.48,-2.06,2.65
9.456,0.90,-0.17,-1.50,1.75
9.466,0.91,0.18,-0.30,0.98
9.476,1.14,0.55,0.44,1.34
9.486,1.25,0.75,0.68,1.61
9.496,0.85,-0.57,1.06,1.48
9.506,0.51,-1.79,1.71,2.53
9.516,0.47,-1.00,2.06,2.34
9.526,0.10,0.01,1.65,1.65
9.536,-0.58,0.83,1.91,2.16
9.546,-1.39,1.10,3.20,3.66
9.556,-1.91,1.82,3.64,4.50
9.566,-1.58,1.63,3.47,4.14
9.575,-0.45,0.02,3.91,3.93
9.586,0.53,-1.16,3.85,4.06
9.595,0.78,-1.47,2.84,3.29
9.606,0.86,0.07,1.54,1.76
9.616,1.26,2.93,0.29,3.20
9.626,1.63,7.59,-1.79,7.97
9.636,1.66,11.41,-3.72,12.11
9.647,2.43,12.55,-5.03,13.74
9.656,3.28,8.97,-5.31,10.93
9.666,3.67,3.36,-6.26,8.00
9.676,3.98,-2.09,-6.14,7.61
9.686,3.62,-6.03,-4.61,8.41
9.696,2.81,-6.51,-3.14,7.76
9.705,2.82,-4.39,-1.66,5.48
9.715,3.54,-2.08,-0.24,4.12
9.725,4.42,0.40,1.25,4.61
9.736,4.81,2.13,1.22,5.40
9.745,4.61,2.81,-0.41,5.42
9.755,3.61,3.09,-0.65,4.79
9.765,2.06,2.70,0.12,3.40
9.775,1.05,1.35,0.75,1.87
9.785,0.58,0.25,0.89,1.09
9.795,0.49,-0.41,0.81,1.04
9.806,0.30,-0.77,0.61,1.02
9.815,-0.11,-1.02,0.53,1.15
9.825,-1.02,-1.28,0.65,1.76
9.835,-1.85,-1.69,1.21,2.78
9.845,-2.08,-2.16,1.74,3.46
9.855,-1.68,-3.00,2.23,4.10
9.865,-0.95,-3.90,1.76,4.38
9.875,-0.16,-4.39,1.39,4.61
9.885,0.54,-4.13,1.56,4.45
9.895,0.83,-3.60,1.21,3.89
9.905,1.06,-2.48,0.74,2.79
9.915,1.69,-0.50,0.36,1.80
9.925,2.28,0.77,0.21,2.42
9.935,2.00,0.78,0.48,2.20
9.945,1.21,0.54,0.80,1.55
9.955,0.30,0.48,1.09,1.23
9.965,-0.57,0.60,1.42,1.64
9.975,-1.26,0.81,1.73,2.29
9.985,-1.72,0.93,2.18,2.92
9.995,-1.89,0.92,2.57,3.32
10.005,-2.04,0.45,3.01,3.66
10.015,-2.25,-0.24,3.90,4.51
10.025,-2.44,-0.71,4.19,4.90
10.035,-2.58,-1.06,3.82,4.73
10.045,-2.71,-1.42,3.49,4.64
10.055,-2.82,-1.77,3.72,4.99
10.065,-2.83,-1.78,4.24,5.40
10.075,-2.90,-0.91,4.22,5.20
10.085,-2.86,-0.09,3.94,4.87
10.095,-2.83,0.39,3.37,4.41
10.105,-2.90,0.72,2.65,4.00
10.115,-3.01,0.86,1.58,3.51
10.125,-2.82,0.83,0.18,2.95
10.135,-2.54,0.71,-0.74,2.73
10.145,-2.12,0.46,-1.10,2.43
10.155,-1.30,0.73,-1.18,1.90
10.165,-0.16,1.36,-1.54,2.06
10.175,1.34,1.71,-3.33,3.98
10.185,2.55,2.21,-4.63,5.73
10.195,3.27,2.47,-4.28,5.93
10.205,4.08,2.55,-3.43,5.91
10.215,4.77,3.13,-2.86,6.38
10.225,5.09,3.98,-3.00,7.12
10.235,5.56,5.06,-2.93,8.07
10.245,5.65,5.63,-2.41,8.34
10.254,4.23,5.35,-2.36,7.21
10.265,2.15,4.46,-2.98,5.78
10.275,0.47,3.47,-3.25,4.78
10.285,-0.86,2.29,-3.24,4.05
10.295,-2.00,0.56,-3.59,4.15
10.305,-2.48,-0.96,-3.94,4.76
10.315,-2.70,-2.91,-3.30,5.17
10.325,-3.66,-3.84,-3.02,6.10
10.335,-4.07,-3.62,-2.54,6.01
10.345,-4.17,-2.76,-1.47,5.21
10.355,-4.38,-1.47,0.05,4.62
10.365,-4.93,-2.72,1.08,5.74
10.375,-5.06,-3.60,1.55,6.40
10.384,-4.35,-3.22,2.13,5.81
10.394,-3.24,-2.59,2.32,4.75
10.404,-1.87,-2.00,2.45,3.67
10.414,-0.36,-1.23,2.28,2.61
10.424,0.61,-0.16,1.42,1.56
10.435,1.29,0.48,0.30,1.41
10.444,1.62,0.59,-0.73,1.87
10.454,1.54,0.32,-1.64,2.27
10.465,1.16,-0.02,-1.77,2.12
10.474,0.81,-0.82,-0.92,1.47
10.484,0.81,-1.45,-0.19,1.67
10.494,0.97,-1.20,0.23,1.56
10.504,0.73,-1.27,0.55,1.57
10.514,0.45,-1.53,1.20,2.00
10.524,0.33,-2.30,2.11,3.14
10.534,0.61,-2.12,2.93,3.67
10.544,0.49,-0.75,2.68,2.83
10.554,-0.46,1.09,2.11,2.42
10.564,-1.35,2.99,2.22,3.96
10.574,-1.58,4.30,2.82,5.38
10.584,-1.28,2.84,3.25,4.50
10.594,-0.15,0.14,3.61,3.61
10.604,1.12,-1.77,2.43,3.21
10.614,2.10,-2.33,0.84,3.25
10.624,2.97,-1.04,-0.13,3.15
10.634,3.66,1.60,-0.64,4.05
10.644,4.16,6.55,-0.90,7.81
10.654,3.89,11.45,-2.37,12.33
10.665,3.88,12.40,-4.31,13.69
10.674,4.71,9.32,-4.06,11.20
10.684,5.42,4.48,-4.13,8.16
10.694,4.91,-0.53,-5.12,7.11
10.704,3.42,-3.75,-5.41,7.42
10.714,1.92,-3.99,-4.58,6.37
10.724,1.45,-2.39,-2.67,3.87
10.734,1.61,-0.98,-0.85,2.07
10.744,1.74,-0.31,0.01,1.77
10.754,1.67,0.23,-0.26,1.71
10.764,1.59,0.97,-0.95,2.09
10.774,1.92,1.28,-1.10,2.56
10.784,1.91,1.11,-0.72,2.33
10.794,1.27,0.77,0.10,1.49
10.804,0.64,0.40,1.03,1.27
10.814,0.57,-0.36,2.03,2.14
10.824,0.68,-1.33,2.59,2.99
10.834,0.55,-2.06,2.45,3.25
10.844,0.45,-2.57,2.07,3.33
10.854,0.42,-2.89,2.22,3.67
10.864,0.32,-3.31,2.75,4.32
10.873,-0.02,-3.93,2.91,4.89
10.884,-0.38,-4.41,2.71,5.20
10.894,-0.28,-4.73,2.87,5.54
10.904,0.23,-4.88,2.44,5.46
10.914,0.63,-4.77,1.39,5.01
10.924,1.20,-3.65,0.63,3.89
10.934,1.75,-1.18,0.00,2.11
10.943,1.88,1.32,0.17,2.31
10.953,1.24,2.49,0.85,2.91
10.964,0.14,2.12,1.37,2.53
10.973,-0.85,1.44,1.48,2.23
10.984,-1.73,0.97,1.48,2.47
10.994,-2.49,0.59,1.61,3.02
11.004,-2.82,0.34,2.07,3.51
11.014,-2.77,0.09,2.77,3.92
11.023,-2.55,-0.04,3.37,4.23
11.034,-2.34,-0.09,3.43,4.16
11.043,-2.41,-0.20,2.94,3.81
11.053,-2.65,0.16,2.38,3.56
11.064,-2.74,0.82,2.30,3.67
11.073,-2.36,1.72,2.43,3.80
11.083,-1.69,2.54,2.24,3.79
11.093,-1.21,2.78,1.83,3.54
11.103,-1.20,2.16,1.57,2.93
11.113,-1.48,1.07,1.77,2.54
11.123,-1.58,0.08,1.99,2.54
11.134,-1.63,-0.65,1.96,2.63
11.143,-1.73,-1.27,1.60,2.68
11.153,-1.78,-1.77,1.25,2.81
11.163,-1.58,-1.87,0.91,2.62
11.173,-1.01,-1.13,0.76,1.70
11.183,-0.39,0.25,0.66,0.81
11.193,0.35,1.38,-1.05,1.77
11.203,1.05,2.08,-3.10,3.88
11.213,1.36,2.63,-3.72,4.76
11.223,1.99,2.80,-3.79,5.11
11.233,2.85,2.80,-3.63,5.40
11.243,3.12,2.60,-3.57,5.41
11.253,3.47,3.20,-3.70,6.00
11.263,4.30,4.22,-4.02,7.24
11.273,4.72,4.58,-4.05,7.73
11.283,3.20,4.22,-3.71,6.47
11.293,1.07,2.81,-3.31,4.47
11.303,-0.59,1.25,-3.14,3.43
11.313,-1.43,0.22,-3.10,3.43
11.323,-1.91,-1.69,-2.63,3.66
11.333,-2.71,-3.06,-2.29,4.69
11.343,-3.33,-2.48,-2.34,4.76
11.353,-3.86,-2.75,-1.73,5.05
11.363,-4.64,-1.84,-0.47,5.02
11.373,-5.26,-1.79,0.98,5.64
11.383,-5.53,-2.95,1.59,6.47
11.393,-4.86,-2.86,2.17,6.04
11.403,-3.62,-2.86,2.31,5.16
11.413,-2.33,-3.19,2.19,4.52
11.423,-1.16,-2.82,1.92,3.61
11.433,0.38,-1.79,1.47,2.35
11.443,1.53,-1.16,0.77,2.07
11.453,2.14,-0.90,-0.19,2.33
11.463,2.18,-0.62,-1.21,2.57
11.473,1.75,-0.49,-1.80,2.56
11.483,1.24,-0.12,-1.44,1.91
11.493,1.29,0.25,-0.39,1.37
11.503,1.64,0.41,-0.06,1.69
11.513,1.76,0.63,-0.18,1.87
11.523,1.32,-0.28,0.37,1.40
11.533,0.83,-1.09,1.29,1.88
11.543,0.40,-1.34,1.80,2.28
11.553,-0.22,-1.29,1.81,2.23
11.563,-0.72,0.06,2.32,2.44
11.573,-1.48,1.34,3.17,3.75
11.583,-2.13,2.84,3.73,5.15
11.593,-2.31,3.15,3.72,5.39
11.602,-1.29,1.95,3.93,4.57
11.613,0.01,0.13,3.69,3.69
11.622,1.14,-0.95,2.16,2.62
11.633,1.88,-0.49,0.17,1.95
11.643,2.41,1.93,-1.07,3.27
11.653,3.21,5.62,-2.12,6.81
11.663,3.95,10.50,-3.91,11.88
11.674,4.52,13.36,-5.19,15.03
11.683,5.20,11.71,-3.99,13.42
11.693,5.97,6.87,-3.42,9.73
11.703,5.78,0.82,-3.72,6.92
11.712,5.05,-4.27,-3.90,7.68
11.723,3.63,-6.50,-3.95,8.42
11.733,2.57,-5.39,-3.02,6.69
11.743,2.01,-2.90,-1.53,3.85
11.752,1.44,-1.11,-0.33,1.85
11.762,0.59,0.08,0.09,0.60
11.772,-0.13,1.13,-0.26,1.16
11.782,0.22,1.61,-0.29,1.65
11.792,1.37,1.01,-0.09,1.70
11.802,1.95,0.45,0.30,2.03
11.812,1.61,0.25,0.96,1.89
11.822,1.18,-0.36,1.76,2.14
11.833,1.02,-0.77,2.33,2.65
11.842,1.17,-1.24,2.37,2.92
11.852,1.29,-2.22,2.00,3.26
11.862,1.17,-3.33,2.19,4.16
11.872,1.04,-3.95,2.98,5.06
11.882,0.90,-3.92,3.29,5.20
11.892,0.89,-3.67,3.72,5.30
11.902,0.94,-3.95,3.85,5.59
11.912,0.91,-4.12,3.12,5.25
11.922,0.58,-4.16,2.09,4.69
11.932,0.44,-3.31,1.05,3.50
11.942,0.44,-1.71,0.20,1.77
11.952,0.56,0.20,-0.20,0.63
11.962,0.68,2.00,0.03,2.12
11.972,0.53,2.20,0.79,2.39
11.982,0.08,1.21,1.33,1.80
11.992,-0.61,0.15,1.66,1.78
12.002,-1.39,-0.57,2.07,2.56
12.012,-1.95,-1.03,2.67,3.47
12.022,-2.12,-1.43,3.39,4.25
12.032,-2.16,-1.74,3.99,4.85
12.042,-2.33,-1.76,4.29,5.19
12.052,-2.56,-1.28,3.94,4.88
12.062,-2.83,-0.13,3.39,4.41
12.072,-3.36,1.43,2.82,4.61
12.082,-3.95,2.96,2.41,5.49
12.092,-4.55,4.33,1.85,6.55
12.102,-5.11,4.92,1.42,7.23
12.112,-5.47,3.66,1.35,6.72
12.122,-5.38,0.98,1.16,5.60
12.132,-4.82,-0.33,0.77,4.89
12.142,-4.15,-0.38,0.47,4.20
12.152,-3.66,-0.11,0.12,3.66
12.162,-3.31,-0.03,-0.10,3.31
12.172,-2.86,0.34,-0.23,2.89
12.182,-1.88,0.97,-0.24,2.12
12.192,-0.63,1.46,-0.75,1.75
12.202,1.03,1.31,-2.10,2.68
12.212,2.54,0.50,-3.47,4.33
12.222,3.55,0.24,-3.12,4.73
12.232,4.89,0.50,-2.59,5.56
12.242,6.24,1.74,-2.34,6.88
12.252,7.04,3.32,-2.69,8.24
12.262,7.30,4.17,-3.53,9.12
12.272,6.76,4.43,-4.18,9.09
12.282,5.35,4.72,-4.21,8.28
12.292,3.44,3.62,-4.20,6.53
12.302,1.29,2.40,-4.28,5.08
12.312,-0.46,1.49,-4.15,4.43
12.322,-1.89,0.04,-4.02,4.44
12.332,-2.75,-1.02,-3.53,4.59
12.342,-3.68,-2.13,-2.32,4.84
12.352,-4.53,-2.41,-1.61,5.38
12.362,-4.54,-1.46,-1.82,5.11
12.372,-4.43,-1.84,-1.24,4.96
12.382,-4.43,-1.93,0.10,4.83
12.392,-4.53,-2.70,1.21,5.41
12.402,-4.21,-2.95,2.24,5.60
12.411,-3.39,-3.10,2.83,5.40
12.421,-2.21,-3.09,2.71,4.67
12.432,-0.80,-2.57,2.52,3.69
12.441,0.71,-1.25,2.17,2.60
12.452,2.01,-0.39,1.47,2.52
12.461,2.74,-0.51,0.36,2.81
12.471,2.95,-0.65,-0.89,3.15
12.481,2.61,-0.68,-1.76,3.22
12.491,1.74,-0.81,-1.80,2.63
12.501,1.14,-1.22,-0.99,1.94
12.511,1.07,-1.37,-0.34,1.77
12.521,1.28,-0.65,-0.15,1.45
12.531,1.14,-0.84,0.14,1.42
12.541,0.59,-1.35,0.78,1.67
12.551,0.11,-1.46,1.72,2.26
12.561,-0.19,-0.64,2.01,2.12
12.571,-0.84,1.03,1.61,2.09
12.581,-1.83,2.88,1.96,3.93
12.591,-2.81,4.30,2.46,5.70
12.601,-2.64,4.28,2.43,5.58
12.611,-1.13,1.91,2.44,3.30
12.621,0.22,-0.62,2.90,2.97
12.631,1.28,-2.33,2.80,3.86
12.641,2.11,-2.68,2.34,4.13
12.651,2.15,-0.77,1.77,2.89
12.661,1.78,1.20,0.89,2.32
12.671,1.72,4.94,-0.15,5.24
12.681,1.75,8.98,-2.02,9.37
12.691,2.70,11.05,-4.18,12.12
12.701,4.04,10.77,-4.50,12.36
12.711,5.99,9.71,-4.26,12.18
12.721,6.65,6.47,-4.52,10.32
12.731,5.20,0.62,-4.11,6.65
12.741,3.38,-3.64,-3.29,5.96
12.751,2.29,-4.58,-2.21,5.58
12.761,1.87,-3.59,-1.09,4.19
12.771,1.53,-2.30,-0.43,2.80
12.781,0.78,-1.14,-0.41,1.44
12.791,0.21,-0.14,-0.93,0.96
12.801,0.35,0.70,-1.11,1.36
12.811,0.54,0.60,-0.01,0.81
12.821,0.25,-0.24,1.03,1.08
12.831,-0.07,-1.16,1.69,2.05
12.841,-0.11,-2.25,2.39,3.28
12.851,0.03,-3.30,2.97,4.44
12.861,0.30,-3.93,3.14,5.04
12.871,0.81,-4.21,2.98,5.23
12.881,1.17,-4.18,2.47,4.99
12.891,1.18,-4.18,2.67,5.10
12.901,1.11,-4.15,3.03,5.25
12.911,1.08,-3.96,3.12,5.16
12.921,1.15,-3.66,3.09,4.93
12.931,1.15,-3.24,2.93,4.52
12.941,1.06,-2.66,2.47,3.78
12.951,0.91,-0.71,1.35,1.78
12.961,0.57,1.46,0.34,1.60
12.971,0.29,2.76,-0.19,2.79
12.981,0.10,3.47,-0.70,3.54
12.991,-0.04,3.17,-0.82,3.27
13.001,-0.15,2.37,-0.69,2.48
13.011,-0.28,1.50,-0.17,1.54
13.020,-0.43,0.86,0.83,1.27
13.031,-0.79,0.14,2.02,2.17
13.040,-1.10,-0.86,3.17,3.47
13.050,-0.91,-1.55,3.95,4.34
13.060,-0.56,-1.87,4.00,4.45
13.071,-0.29,-1.89,3.55,4.03
13.080,-0.26,-1.50,3.02,3.38
13.090,-0.71,-0.53,2.85,2.99
13.100,-1.62,0.74,2.87,3.38
13.111,-2.56,1.68,2.93,4.24
13.120,-3.42,1.94,3.05,4.98
13.130,-4.12,1.61,2.92,5.30
13.140,-4.42,1.11,2.55,5.22
13.150,-4.55,0.74,1.86,4.98
13.160,-4.66,0.39,0.79,4.75
13.170,-4.53,0.27,-0.20,4.55
13.180,-4.33,0.59,-0.99,4.48
13.190,-3.96,1.74,-1.38,4.54
13.200,-2.89,3.14,-1.50,4.53
13.210,-0.94,3.42,-2.60,4.40
13.220,1.18,3.17,-3.69,5.01
13.230,2.77,2.09,-3.53,4.96
13.240,4.07,1.23,-2.63,5.00
13.250,5.63,1.30,-2.11,6.15
13.260,7.04,1.99,-2.19,7.63
13.270,7.85,2.83,-2.46,8.70
13.280,7.90,3.10,-3.08,9.02
13.290,6.83,3.45,-3.78,8.53
13.300,4.97,3.77,-3.70,7.25
13.310,3.04,2.79,-3.60,5.47
13.320,1.20,1.57,-3.73,4.22
13.330,-0.34,0.61,-3.62,3.68
13.340,-1.64,-1.14,-3.19,3.76
13.350,-2.43,-2.67,-2.47,4.37
13.360,-3.02,-3.35,-1.64,4.80
13.370,-3.86,-3.62,-1.29,5.45
13.380,-4.17,-3.54,-1.26,5.61
13.390,-4.21,-3.19,-0.50,5.30
13.400,-4.34,-2.94,0.32,5.25
13.410,-4.40,-3.35,1.03,5.62
13.420,-3.81,-4.21,1.89,5.99
13.430,-2.96,-4.18,2.27,5.60
13.440,-1.77,-3.17,2.22,4.26
13.450,-0.39,-1.99,2.05,2.88
13.460,0.86,-0.60,1.58,1.90
13.470,1.89,0.22,0.93,2.12
13.480,2.33,0.31,0.05,2.35
13.490,2.37,0.06,-0.94,2.55
13.500,2.28,-0.06,-1.54,2.75
13.510,1.88,-0.38,-1.44,2.39
13.520,1.43,-0.69,-0.55,1.68
13.530,1.26,-0.53,0.14,1.38
13.540,1.31,-0.17,0.26,1.35
13.550,1.02,-0.83,0.36,1.37
13.560,0.70,-1.11,0.71,1.49
13.570,0.43,-0.85,1.35,1.65
13.580,0.12,0.11,2.00,2.00
13.589,-0.63,1.29,1.76,2.27
13.600,-1.77,2.26,1.74,3.36
13.610,-2.65,2.92,2.53,4.68
13.620,-2.37,2.82,2.84,4.66
13.630,-1.14,1.52,2.54,3.18
13.640,-0.08,-0.81,2.71,2.82
13.650,0.83,-2.26,2.72,3.63
13.659,1.49,-2.56,2.20,3.69
13.670,1.06,-1.74,1.77,2.70
13.679,0.44,0.47,0.92,1.12
13.689,0.61,3.57,-0.18,3.62
13.700,0.67,7.33,-1.64,7.54
13.710,0.85,10.46,-3.67,11.12
13.721,1.61,11.28,-5.00,12.45
13.729,3.55,9.27,-5.02,11.12
13.739,5.49,5.31,-5.01,9.13
13.750,5.47,-0.18,-4.77,7.26
13.759,4.11,-3.94,-4.14,7.04
13.769,2.82,-4.18,-3.06,5.89
13.779,2.17,-2.18,-1.64,3.48
13.789,2.00,-0.75,-0.29,2.16
13.799,2.07,-0.42,0.63,2.21
13.810,2.12,0.02,0.57,2.19
13.819,2.02,0.52,0.09,2.09
13.830,1.83,0.64,0.03,1.94
13.839,1.37,0.30,0.44,1.47
13.849,0.70,-0.39,0.94,1.24
13.859,0.30,-0.97,1.52,1.82
13.869,0.52,-1.50,2.25,2.75
13.879,0.68,-2.00,2.57,3.33
13.889,0.55,-2.15,2.25,3.16
13.899,0.18,-1.83,1.51,2.38
13.909,-0.34,-1.56,1.31,2.07
13.919,-0.59,-1.47,2.00,2.56
13.929,-0.63,-1.96,2.06,2.92
13.939,-0.58,-2.85,1.99,3.53
13.949,-0.33,-3.44,1.73,3.87
13.959,-0.14,-3.57,1.12,3.74
13.969,0.36,-2.80,0.43,2.86
13.979,1.26,-1.06,-0.29,1.67
13.989,2.28,0.53,-0.42,2.38
13.999,2.75,0.80,0.25,2.88
14.009,2.36,0.35,0.81,2.52
14.019,1.49,0.06,1.05,1.82
14.029,0.71,-0.43,1.45,1.67
14.039,0.13,-1.00,2.10,2.33
14.049,-0.42,-1.37,2.69,3.05
14.059,-0.88,-1.61,3.32,3.80
14.069,-1.02,-1.40,3.78,4.16
14.079,-1.18,-0.76,3.71,3.96
14.089,-1.60,-0.24,3.48,3.84
14.099,-2.22,0.42,3.28,3.98
14.109,-3.07,1.25,2.69,4.27
14.119,-3.92,1.88,2.20,4.87
14.129,-4.63,2.39,2.05,5.60
14.139,-5.07,2.44,2.42,6.13
14.149,-4.82,1.92,2.76,5.88
14.159,-4.46,1.05,2.66,5.30
14.169,-4.18,-0.06,2.30,4.77
14.179,-3.81,-0.79,1.68,4.24
14.189,-3.48,-1.05,0.88,3.74
14.199,-3.25,-1.28,0.19,3.50
14.209,-3.17,-1.26,-0.35,3.43
14.219,-2.48,-0.19,-0.38,2.52
14.229,-1.26,1.31,-0.61,1.91
14.239,0.34,2.37,-2.86,3.73
14.249,1.66,2.97,-4.62,5.74
14.259,2.54,2.69,-4.74,6.02
14.269,3.61,2.74,-4.52,6.41
14.279,4.64,3.38,-4.47,7.27
14.289,5.13,3.54,-4.51,7.69
14.299,5.28,3.84,-4.29,7.82
14.309,5.67,4.70,-4.07,8.41
14.319,5.58,4.97,-3.90,8.43
14.329,3.68,4.31,-3.55,6.69
14.339,1.32,3.19,-2.93,4.52
14.349,-0.28,1.95,-2.38,3.09
14.359,-1.34,0.25,-2.30,2.68
14.368,-1.71,-1.18,-2.26,3.07
14.379,-2.04,-1.48,-1.95,3.18
14.388,-2.84,-1.73,-2.19,3.98
14.399,-3.27,-2.52,-2.14,4.65
14.408,-4.10,-2.55,-1.38,5.02
14.418,-4.82,-2.02,0.26,5.23
14.429,-4.92,-3.29,1.64,6.14
14.438,-4.16,-3.83,2.04,6.01
14.448,-2.89,-3.55,2.37,5.16
14.459,-1.70,-4.61,2.49,5.51
14.468,-0.19,-4.25,1.91,4.66
14.479,1.23,-2.75,1.23,3.25
14.488,2.36,-1.45,0.67,2.85
14.498,3.09,-0.74,-0.02,3.18
14.508,3.06,-0.57,-1.02,3.28
14.518,2.66,-0.28,-1.56,3.09
14.528,1.94,-0.03,-1.11,2.23
14.538,1.75,-0.13,-0.22,1.76
14.548,1.98,-0.38,0.19,2.02
14.558,2.06,-0.09,0.01,2.06
14.568,1.65,0.14,-0.04,1.66
14.578,0.86,-0.41,0.21,0.98
14.588,-0.13,-1.11,0.85,1.40
14.598,-0.88,-1.56,2.00,2.68
14.608,-1.26,-0.92,2.68,3.10
14.618,-1.49,0.45,2.71,3.12
14.628,-2.26,1.62,2.77,3.92
14.638,-3.00,2.73,3.11,5.11
14.648,-2.97,3.14,3.18,5.36
14.658,-2.03,1.65,3.04,4.02
14.668,-0.98,-0.47,3.03,3.22
14.678,-0.28,-1.49,2.69,3.09
14.688,-0.10,-2.03,1.86,2.75
14.698,-0.08,-0.96,1.19,1.54
14.708,0.16,1.42,0.30,1.46
14.718,0.53,5.06,-1.50,5.30
14.728,0.74,9.53,-3.68,10.24
14.738,1.36,12.40,-5.31,13.56
14.748,2.47,11.74,-5.12,13.04
14.758,4.75,8.38,-4.46,10.62
14.768,5.93,3.16,-4.15,7.90
14.778,5.25,-2.55,-3.79,6.95
14.788,4.05,-5.36,-3.33,7.50
14.798,3.49,-4.68,-2.28,6.27
14.808,3.38,-2.62,-1.01,4.39
14.818,3.22,-1.13,0.15,3.42
14.828,2.60,-0.13,0.42,2.64
14.838,1.79,0.44,-0.08,1.85
14.848,1.42,0.65,-0.21,1.57
14.858,1.26,0.83,-0.13,1.52
14.868,0.88,0.60,0.18,1.08
14.878,0.23,0.05,0.53,0.58
14.888,-0.11,-0.79,1.20,1.44
14.898,-0.12,-1.57,1.87,2.44
14.908,-0.11,-2.18,2.08,3.02
14.918,-0.17,-2.82,1.77,3.33
14.928,-0.35,-2.91,1.22,3.17
14.938,-0.36,-2.71,1.53,3.14
14.948,-0.20,-2.58,1.80,3.15
14.958,-0.09,-2.53,1.78,3.09
14.968,0.07,-2.61,2.06,3.32
14.977,0.36,-2.81,2.00,3.47
14.987,0.79,-2.73,1.72,3.32
14.997,1.18,-1.95,1.05,2.51
15.007,1.70,-0.20,0.12,1.72
15.018,2.15,0.98,-0.11,2.37
15.028,2.20,1.45,0.27,2.65
15.037,1.49,1.15,0.95,2.10
15.047,0.43,0.49,1.23,1.39
15.058,-0.48,0.02,1.34,1.43
15.067,-1.27,-0.46,1.59,2.09
15.077,-1.81,-0.79,2.07,2.86
15.087,-1.84,-0.90,2.77,3.45
15.098,-1.58,-0.94,3.40,3.87
15.107,-1.44,-0.91,3.69,4.06
15.117,-1.53,-0.66,3.20,3.61
15.128,-1.76,-0.37,2.49,3.07
15.137,-2.03,0.41,2.22,3.03
15.148,-2.22,1.36,2.61,3.68
15.157,-2.54,2.04,2.97,4.41
15.168,-2.86,2.38,3.06,4.82
15.177,-3.08,2.20,2.74,4.68
15.187,-3.31,1.29,2.26,4.21
15.197,-3.45,0.13,1.63,3.81
15.207,-3.59,-0.51,0.76,3.70
15.217,-3.59,-0.87,0.17,3.69
15.228,-3.53,-0.81,-0.33,3.63
15.237,-3.29,-0.48,-0.59,3.38
15.247,-2.78,0.50,-0.84,2.95
15.257,-1.85,1.70,-1.91,3.16
15.267,-0.54,2.42,-3.50,4.29
15.277,0.66,2.06,-4.02,4.57
15.287,1.83,0.86,-3.46,4.01
15.297,3.08,0.56,-2.79,4.19
15.307,4.61,1.29,-2.75,5.52
15.317,5.93,2.24,-2.89,6.97
15.327,6.78,3.18,-3.08,8.09
15.337,7.24,4.38,-3.37,9.11
15.347,6.61,5.15,-3.24,8.98
15.357,4.38,4.71,-3.17,7.17
15.367,1.76,3.18,-3.24,4.87
15.377,-0.24,1.76,-3.13,3.60
15.387,-1.47,0.24,-3.00,3.35
15.397,-2.04,-1.49,-2.95,3.88
15.407,-2.10,-2.52,-2.43,4.09
15.417,-2.69,-3.16,-2.15,4.67
15.427,-3.65,-3.03,-2.55,5.38
15.437,-4.02,-2.77,-1.83,5.21
15.447,-4.16,-2.08,-0.12,4.66
15.457,-4.30,-2.69,1.36,5.26
15.467,-3.89,-3.42,1.89,5.52
15.477,-2.96,-4.00,2.13,5.41
15.487,-1.82,-4.05,2.00,4.87
15.497,-0.43,-3.12,1.85,3.65
15.507,0.86,-1.56,1.53,2.35
15.517,2.04,-0.08,1.05,2.29
15.527,2.54,0.68,0.09,2.63
15.537,2.53,1.00,-1.29,3.01
15.547,2.00,1.10,-2.28,3.23
15.557,1.09,1.25,-2.16,2.72
15.567,0.49,1.17,-0.96,1.59
15.577,0.50,0.65,-0.04,0.82
15.587,0.56,0.49,-0.22,0.78
15.597,0.12,0.05,-0.39,0.41
15.607,-0.65,-0.74,0.02,0.98
15.616,-1.26,-1.28,1.14,2.13
15.627,-1.65,-1.54,2.59,3.43
15.637,-1.85,-0.86,2.97,3.60
15.647,-2.39,0.65,2.97,3.87
15.657,-3.21,1.49,3.77,5.17
15.666,-3.11,1.87,4.21,5.56
15.677,-2.15,1.05,3.82,4.51
15.687,-0.87,-0.60,3.50,3.65
15.697,0.44,-1.83,2.92,3.47
15.706,1.16,-1.98,1.81,2.93
15.716,1.79,-0.51,0.95,2.08
15.727,2.68,2.94,-0.63,4.02
15.736,2.99,8.81,-3.36,9.89
15.747,1.80,13.81,-4.70,14.70
15.757,0.69,14.25,-5.68,15.36
15.766,2.03,9.57,-4.67,10.84
15.776,5.01,3.17,-3.40,6.83
15.786,6.93,-2.06,-3.08,7.85
15.796,5.80,-5.48,-3.21,8.60
15.806,3.97,-5.26,-3.07,7.27
15.816,3.06,-3.36,-1.77,4.88
15.827,2.74,-1.90,-0.58,3.38
15.836,2.59,-0.87,0.25,2.74
15.846,2.29,-0.18,0.46,2.34
15.856,1.45,0.46,-0.25,1.54
15.866,0.74,1.50,-0.64,1.79
15.876,0.52,2.03,-0.59,2.18
15.886,0.33,1.36,-0.29,1.42
15.896,-0.04,0.06,0.67,0.68
15.906,-0.35,-1.19,2.01,2.36
15.916,-0.29,-1.89,2.84,3.43
15.926,-0.31,-1.63,2.28,2.82
15.936,-0.34,-1.49,1.84,2.40
15.946,-0.58,-1.87,1.52,2.48
15.956,-1.03,-2.69,1.59,3.29
15.966,-1.29,-3.47,1.56,4.02
15.976,-1.20,-3.81,1.58,4.30
15.986,-0.53,-3.70,2.18,4.33
15.996,0.23,-3.70,1.93,4.18
16.006,0.94,-3.21,1.66,3.73
16.016,1.65,-1.93,1.20,2.81
16.026,2.40,-0.41,0.83,2.57
16.036,3.02,1.29,0.48,3.32
16.046,2.56,1.47,0.48,2.99
16.056,1.36,0.70,0.61,1.64
16.066,0.43,0.26,0.70,0.86
16.076,-0.45,0.08,0.90,1.01
16.086,-1.12,0.07,1.37,1.77
16.096,-1.31,0.10,2.31,2.66
16.106,-1.20,0.08,3.46,3.66
16.116,-1.13,0.08,4.24,4.39
16.126,-1.35,0.03,4.18,4.39
16.136,-1.70,-0.13,3.68,4.06
16.146,-2.19,0.24,3.40,4.05
16.156,-2.57,0.64,3.50,4.39
16.166,-2.96,0.92,3.50,4.68
16.176,-3.21,1.12,3.15,4.63
16.186,-3.30,1.20,2.48,4.29
16.196,-3.07,0.44,1.88,3.62
16.206,-2.86,-0.83,1.04,3.15
16.216,-2.91,-1.53,-0.06,3.29
16.226,-3.19,-1.50,-0.68,3.58
16.236,-3.30,-1.11,-0.77,3.57
16.246,-2.90,-0.10,-0.70,2.99
16.256,-1.79,1.29,-0.59,2.28
16.266,-0.24,1.88,-2.03,2.78
16.276,1.41,1.76,-3.36,4.04
16.286,2.68,0.96,-3.53,4.54
16.296,3.92,0.75,-2.85,4.90
16.306,5.55,2.10,-2.35,6.38
16.316,7.00,4.05,-2.49,8.46
16.326,7.55,5.15,-3.03,9.63
16.336,7.08,5.14,-3.59,9.46
16.346,5.49,4.74,-3.82,8.20
16.356,3.61,3.89,-3.95,6.62
16.366,1.84,2.91,-4.50,5.66
16.376,0.09,2.23,-4.67,5.17
16.386,-1.27,1.31,-4.41,4.77
16.396,-2.45,-0.03,-4.18,4.84
16.405,-3.29,-1.51,-3.66,5.15
16.415,-3.22,-1.78,-2.66,4.54
16.426,-3.73,-2.47,-2.30,5.03
16.435,-4.07,-2.88,-1.79,5.30
16.445,-4.25,-2.97,-0.55,5.22
16.455,-4.29,-2.00,0.85,4.81
16.465,-4.32,-2.71,1.91,5.44
16.475,-3.89,-3.52,2.19,5.69
16.485,-2.99,-3.44,2.36,5.13
16.495,-1.75,-3.44,2.17,4.43
16.505,-0.33,-2.50,1.86,3.13
16.515,1.19,-1.20,1.57,2.31
16.525,2.28,-0.26,0.88,2.45
16.535,2.90,0.20,-0.36,2.92
16.545,2.97,0.44,-1.56,3.38
16.555,2.59,0.39,-1.83,3.19
16.565,1.87,0.24,-1.11,2.19
16.575,1.39,-0.17,0.01,1.40
16.585,1.40,-0.71,0.40,1.62
16.595,1.39,-1.22,0.33,1.88
16.605,1.03,-1.77,0.39,2.08
16.615,0.68,-1.92,0.89,2.22
16.625,0.44,-1.57,1.58,2.27
16.635,0.22,-0.89,2.30,2.47
16.645,-0.37,-0.05,2.27,2.30
16.655,-1.39,1.24,1.83,2.61
16.665,-2.41,2.52,2.39,4.23
16.675,-2.78,3.91,2.77,5.54
16.685,-2.56,3.28,2.37,4.79
16.695,-1.33,0.88,2.23,2.74
16.705,0.08,-1.22,1.97,2.32
16.715,0.72,-2.00,1.58,2.65
16.725,1.02,-1.21,1.45,2.15
16.735,1.39,1.13,0.39,1.83
16.745,1.36,4.23,-0.78,4.51
16.755,0.67,8.11,-1.74,8.33
16.765,0.96,9.74,-3.09,10.27
16.775,2.57,8.05,-3.30,9.07
16.785,4.98,5.28,-2.81,7.78
16.795,6.70,2.49,-3.29,7.87
16.805,6.50,-0.47,-4.07,7.68
16.815,4.74,-2.86,-4.29,7.01
16.825,3.44,-3.33,-3.71,6.05
16.835,3.08,-2.78,-2.50,4.84
16.845,2.79,-1.66,-1.09,3.42
16.855,2.46,-0.38,-0.15,2.50
16.865,2.02,0.29,-0.10,2.04
16.875,1.40,0.81,-0.68,1.76
16.885,0.96,1.21,-0.68,1.69
16.895,1.10,1.48,0.73,1.98
16.905,0.56,0.92,0.03,1.07
16.915,-0.33,0.50,0.22,0.64
16.924,-1.14,-0.05,0.37,1.20
16.934,-1.15,-0.85,1.08,1.79
16.945,-0.81,-1.37,2.25,2.75
16.955,-0.49,-1.64,2.95,3.41
16.964,-0.39,-2.05,2.62,3.35
16.974,-0.63,-2.42,2.13,3.29
16.985,-0.97,-2.74,2.12,3.60
16.994,-1.26,-2.89,1.83,3.65
17.004,-1.12,-3.08,1.88,3.78
17.014,-0.66,-3.65,1.76,4.11
17.025,0.02,-2.95,1.04,3.13
17.035,0.61,-1.91,0.50,2.07
17.045,1.47,-0.42,0.10,1.53
17.055,2.39,1.20,-0.09,2.67
17.065,2.63,1.74,0.16,3.16
17.075,2.10,1.16,0.64,2.48
17.085,1.40,0.27,0.87,1.68
17.095,0.87,-0.45,1.00,1.40
17.104,0.40,-0.78,1.16,1.45
17.114,0.11,-1.05,1.52,1.85
17.125,-0.04,-1.32,1.99,2.39
17.134,0.01,-1.45,2.59,2.97
17.144,0.03,-1.44,3.05,3.37
17.154,-0.29,-1.24,3.49,3.71
17.164,-0.39,-0.95,3.08,3.25
17.175,-0.89,-0.37,2.82,2.98
17.184,-1.54,0.47,2.89,3.31
17.194,-2.05,0.99,2.71,3.54
17.204,-1.90,0.80,2.55,3.28
17.214,-1.49,-0.02,2.05,2.54
17.224,-1.28,-1.15,1.06,2.02
17.234,-1.32,-1.82,-0.09,2.25
17.244,-1.76,-1.64,-0.84,2.55
17.254,-2.65,-0.89,-0.72,2.89
17.264,-2.08,0.02,-0.65,2.18
17.274,-1.01,1.87,-0.49,2.18
17.284,-0.21,3.41,-2.09,4.00
17.294,0.50,3.84,-3.73,5.38
17.304,1.17,2.40,-4.08,4.88
17.314,1.73,0.87,-3.97,4.42
17.324,2.58,0.45,-3.75,4.58
17.334,3.90,0.43,-3.49,5.25
17.344,4.56,1.04,-3.42,5.79
17.354,4.12,3.04,-3.62,6.27
17.364,3.57,4.20,-3.47,6.51
17.374,2.66,4.29,-3.15,5.95
17.384,1.37,4.26,-2.79,5.27
17.394,-0.02,3.73,-3.27,4.96
17.404,-0.95,3.35,-3.57,4.99
17.414,-1.55,2.49,-3.48,4.55
17.424,-2.33,0.75,-3.42,4.21
17.434,-3.17,-0.93,-3.21,4.61
17.444,-3.66,-1.92,-3.00,5.10
17.454,-3.71,-2.75,-2.09,5.07
17.464,-3.18,-2.40,-0.87,4.08
17.474,-3.01,-1.88,-0.04,3.55
17.484,-2.87,-2.43,0.49,3.79
17.494,-2.60,-2.88,0.53,3.91
17.504,-1.98,-2.96,0.39,3.58
17.514,-1.07,-2.45,0.34,2.69
17.524,0.06,-1.61,0.54,1.70
17.534,0.97,-0.37,0.48,1.15
17.544,1.47,0.60,0.32,1.62
17.554,1.49,0.99,-0.10,1.79
17.564,1.31,1.10,-0.79,1.88
17.574,1.35,0.96,-1.43,2.19
17.584,1.64,0.37,-1.55,2.29
17.594,1.79,-0.36,-1.36,2.28
17.604,1.64,-1.12,-1.27,2.36
17.614,1.28,-1.41,-0.78,2.06
17.624,0.89,-1.68,-0.28,1.92
17.634,0.51,-1.63,0.24,1.72
17.644,0.28,-1.53,0.70,1.70
17.654,-0.22,-1.10,1.06,1.55
17.664,-0.78,-0.51,1.31,1.61
17.674,-1.27,-0.25,1.25,1.80
17.683,-1.73,-0.24,1.10,2.06
17.694,-1.90,0.40,0.94,2.16
17.704,-1.89,0.47,1.07,2.22
17.713,-2.17,0.32,0.92,2.38
17.723,-1.80,0.66,0.91,2.12
17.734,-1.05,0.72,0.76,1.49
17.743,-0.78,0.35,0.61,1.05
17.753,-0.66,-0.51,0.69,1.08
17.763,-0.43,-1.21,0.32,1.32
17.773,0.13,-1.20,-0.23,1.23
17.783,0.60,-0.22,-0.86,1.07
17.793,0.74,1.47,-1.12,1.99
17.803,1.13,3.41,-0.97,3.72
17.813,0.53,5.39,-1.15,5.54
17.823,-0.26,4.74,-1.33,4.93
17.833,0.29,2.75,-1.19,3.01
17.843,1.09,1.64,-2.36,3.07
17.853,2.10,0.86,-4.42,4.97
17.863,2.91,-0.04,-5.62,6.33
17.873,2.71,-0.51,-5.34,6.01
17.883,3.31,-0.13,-4.66,5.72
17.893,4.53,0.31,-3.69,5.85
17.903,5.59,0.88,-2.91,6.37
17.913,6.65,0.92,-1.95,6.99
17.923,6.78,1.01,-0.93,6.92
17.933,6.14,1.47,-0.29,6.32
17.943,4.48,1.68,0.40,4.81
17.953,3.15,1.32,1.26,3.64
17.963,2.40,1.32,1.95,3.36
17.973,1.87,0.81,1.93,2.80
17.983,1.57,0.21,1.86,2.44
17.993,1.33,-0.01,2.01,2.41
18.003,0.94,-0.34,1.59,1.88
18.013,0.87,-0.93,0.94,1.58
18.023,0.81,-1.13,0.35,1.43
18.033,0.40,-1.14,0.06,1.20
18.043,-0.14,-1.09,-0.20,1.12
18.053,-0.33,-0.41,-0.45,0.69
18.063,-0.02,1.84,-0.77,1.99
18.073,0.57,1.52,-0.07,1.62
18.083,1.20,-0.32,0.26,1.27
18.093,2.18,-0.58,0.06,2.25
18.103,3.75,-0.56,-0.23,3.80
18.113,2.98,-0.13,-0.98,3.15
18.123,1.81,-0.24,-1.39,2.30
18.133,1.47,-0.52,0.04,1.56
18.143,1.30,-0.83,1.11,1.90
18.153,1.03,-0.79,1.74,2.17
18.163,0.53,-0.79,2.01,2.23
18.173,0.26,-0.90,1.69,1.94
18.183,0.03,-0.87,1.04,1.36
18.193,-0.31,-0.87,0.42,1.01
18.203,-0.48,-0.60,0.24,0.81
18.213,-0.06,-0.80,0.36,0.88
18.223,0.64,-0.97,0.41,1.24
18.233,1.52,-0.93,0.70,1.92
18.243,2.17,-0.47,0.85,2.37
18.253,2.31,0.46,0.87,2.51
18.263,1.58,1.29,0.71,2.16
18.273,0.29,1.64,0.39,1.71
18.283,-0.25,1.92,0.30,1.96
18.293,-0.37,2.05,0.32,2.10
18.303,-0.12,1.64,0.64,1.77
18.313,0.27,1.39,-0.31,1.45
18.323,0.79,1.22,-1.22,1.90
18.333,1.17,1.14,-1.05,1.94
18.343,1.53,1.85,-1.37,2.76
18.353,1.38,2.78,-0.65,3.17
18.363,1.09,4.28,0.07,4.42
18.372,0.72,4.73,0.70,4.83
18.383,0.47,4.11,0.73,4.20
18.393,0.12,3.54,0.38,3.56
18.402,-0.47,2.50,0.36,2.57
18.412,-1.43,1.74,0.12,2.26
18.423,-1.80,2.05,-0.40,2.76
18.432,-1.50,3.20,-1.20,3.73
18.442,-0.67,7.77,0.04,7.80
18.452,-0.61,2.41,-0.96,2.66
18.463,-1.56,0.97,-1.74,2.53
18.472,-2.62,1.63,-2.30,3.85
18.482,-2.93,1.03,-3.26,4.50
18.492,-2.96,0.77,-4.07,5.09
18.502,-3.01,0.61,-4.36,5.33
18.512,-2.98,0.57,-4.69,5.59
18.522,-2.83,0.87,-4.48,5.37
18.532,-2.46,1.07,-4.87,5.56
18.542,-1.94,1.00,-4.86,5.32
18.552,-1.78,1.34,-4.06,4.63
18.562,-1.71,1.86,-3.29,4.15
18.572,-1.71,2.47,-2.74,4.07
18.582,-1.41,2.43,-3.11,4.19
18.592,-1.02,2.37,-3.89,4.67
18.602,-1.15,3.12,-3.90,5.12
18.612,-1.34,2.75,-2.03,3.67
18.622,-1.60,1.29,-1.58,2.60
18.632,-1.72,-0.40,-2.87,3.37
18.642,-2.10,-0.95,-3.50,4.19
18.652,-2.45,-0.74,-3.44,4.29
18.662,-2.58,-0.39,-2.91,3.91
18.672,-2.76,-0.23,-2.56,3.78
18.682,-3.03,-0.14,-2.41,3.88
18.692,-3.17,0.02,-2.09,3.79
18.702,-3.07,0.27,-2.67,4.07
18.712,-3.60,0.94,-2.75,4.62
18.722,-2.88,0.18,-1.46,3.23
18.732,-3.15,1.40,-1.00,3.59
18.742,-3.29,1.76,-0.13,3.73
18.752,-3.58,1.96,1.09,4.22
18.762,-3.57,1.58,2.45,4.61
18.772,-3.30,1.17,2.95,4.58
18.782,-2.72,1.22,2.96,4.20
18.792,-2.21,1.63,2.75,3.88
18.802,-1.86,1.67,2.62,3.62
18.812,-1.56,1.28,2.72,3.39
18.822,-1.26,0.91,2.60,3.03
18.832,-1.11,0.85,2.17,2.58
18.842,-0.95,0.38,2.31,2.53
18.852,-0.81,-0.20,2.63,2.76
18.862,-0.64,-0.64,2.94,3.07
18.872,-0.36,-1.15,2.62,2.89
18.882,0.03,-1.50,1.72,2.28
18.892,0.46,-1.32,1.04,1.74
18.902,0.86,-1.05,0.70,1.53
18.912,1.27,-0.61,0.84,1.64
18.922,1.55,0.16,0.79,1.75
18.932,1.58,0.55,0.39,1.71
18.942,1.37,0.43,-0.15,1.44
18.952,1.29,-0.38,-0.63,1.49
18.962,1.15,-1.36,-0.69,1.91
18.972,1.01,-2.00,-0.19,2.25
18.982,1.14,-2.17,0.33,2.47
18.992,1.09,-1.83,0.25,2.14
19.001,1.01,-1.43,-0.37,1.79
19.011,1.10,-1.40,-0.93,2.01
19.022,0.98,-1.27,-1.42,2.14
19.032,0.93,-1.11,-1.41,2.02
19.041,1.02,-1.25,-1.07,1.93
19.051,1.10,-1.36,-0.79,1.92
19.061,1.14,-1.48,-0.35,1.90
19.072,1.06,-1.79,-0.41,2.12
19.082,0.99,-1.75,-1.23,2.36
19.092,1.01,-1.41,-1.80,2.50
19.101,0.95,-1.05,-1.75,2.25
19.112,0.80,-0.79,-1.58,1.94
19.122,0.62,-0.44,-1.29,1.50
19.131,0.39,-0.06,-1.23,1.29
19.141,0.13,0.19,-1.45,1.47
19.151,0.06,0.16,-1.61,1.62
19.161,1.36,0.29,-1.95,2.39
19.171,1.74,0.36,-1.61,2.40
19.181,1.49,0.21,-1.72,2.29
19.191,1.05,0.79,-1.70,2.15
19.201,0.45,1.10,-1.88,2.23
19.211,0.41,1.19,-2.03,2.39
19.221,0.16,0.69,-2.05,2.17
19.231,-0.21,0.42,-1.71,1.77
19.241,-0.47,0.32,-1.57,1.67
19.251,-0.35,0.13,-1.48,1.52
19.261,0.16,0.45,-2.11,2.16
19.271,1.24,0.73,-2.70,3.06
19.281,3.81,1.33,-2.84,4.93
19.291,5.77,1.91,-3.45,6.99
19.301,3.61,0.71,-3.97,5.42
19.311,1.03,-0.91,-3.04,3.34
19.321,0.13,-1.53,-1.39,2.06
19.331,-0.10,-1.32,0.14,1.33
19.341,-0.45,-0.91,0.64,1.20
19.351,-0.28,-0.32,0.10,0.43
19.361,0.31,-0.02,-0.69,0.75
19.371,0.73,0.32,-1.13,1.39
19.381,0.46,0.48,-1.23,1.40
19.391,-0.39,0.18,-1.29,1.36
19.401,-0.79,0.11,-1.14,1.39
19.411,-0.92,0.10,-0.97,1.34
19.421,-1.30,0.02,-0.57,1.42
19.431,-1.78,-0.02,-0.24,1.80
19.441,-2.55,-0.46,-0.05,2.59
19.451,-2.87,-0.69,0.12,2.95
19.461,-2.82,-0.43,0.18,2.86
19.471,-2.79,-0.56,0.05,2.84
19.481,-2.37,-0.56,-0.24,2.44
19.491,-1.86,-0.59,-0.58,2.04
19.501,-1.17,-0.41,-0.69,1.42
19.511,-0.81,-0.57,-1.26,1.60
19.521,0.01,-0.34,-4.77,4.78
19.531,0.35,-0.36,-2.97,3.02
19.541,-0.20,-0.17,-1.36,1.38
19.551,-0.69,-1.34,0.51,1.59
19.561,-0.86,-0.88,0.34,1.27
19.571,-0.74,-0.57,0.26,0.97
19.581,-1.18,-0.91,0.66,1.62
19.591,-1.46,-0.61,1.07,1.91
19.601,-1.57,-0.35,1.08,1.93
19.611,-1.89,-0.53,0.41,2.00
19.621,-1.57,-0.01,-1.56,2.21
