time,ax,ay,az,atotal
0.000,-0.17,0.23,-0.49,0.57
0.010,-0.18,0.16,0.10,0.26
0.020,-0.42,0.34,-0.13,0.55
0.030,-0.40,0.26,-0.46,0.67
0.040,-0.39,0.29,-0.56,0.75
0.050,-0.47,0.35,-0.37,0.69
0.060,-0.46,0.38,-0.23,0.64
0.070,-0.47,0.50,0.00,0.68
0.080,-0.48,0.63,0.25,0.83
0.090,-0.40,0.70,0.35,0.88
0.100,-0.31,0.56,0.31,0.71
0.110,-0.29,0.45,0.32,0.63
0.120,-0.38,0.36,0.34,0.62
0.130,-0.42,0.12,0.18,0.47
0.140,-0.47,-0.06,-0.02,0.47
0.150,-0.55,-0.09,0.00,0.56
0.160,-0.59,-0.14,0.08,0.61
0.170,-0.54,-0.22,0.01,0.58
0.180,-0.35,-0.09,-0.07,0.36
0.189,-0.07,-0.15,-0.05,0.18
0.200,0.12,-0.37,-0.01,0.39
0.210,0.11,-0.47,-0.05,0.48
0.220,0.05,-0.61,-0.04,0.61
0.229,-0.05,-0.80,-0.02,0.81
0.239,-0.11,-1.01,-0.22,1.04
0.249,-0.08,-1.27,-0.40,1.33
0.260,-0.01,-1.38,-0.41,1.44
0.269,0.06,-1.40,-0.17,1.41
0.280,0.11,-1.55,0.22,1.57
0.289,0.06,-1.68,0.52,1.76
0.299,-0.04,-1.54,0.62,1.67
0.309,-0.14,-1.54,1.00,1.84
0.319,-0.21,-1.93,1.30,2.34
0.329,-0.31,-1.55,1.59,2.25
0.339,-0.33,-1.41,2.00,2.46
0.349,-0.34,-1.84,2.21,2.89
0.359,-1.61,-1.20,1.89,2.76
0.369,-2.26,-0.45,1.85,2.95
0.379,-0.54,-1.28,1.96,2.40
0.389,0.04,-1.57,1.97,2.52
0.399,0.13,-1.48,0.80,1.69
0.409,0.11,-0.86,-0.58,1.05
0.419,-0.15,-0.24,-1.06,1.09
0.429,-0.33,-0.08,-0.79,0.86
0.439,-0.27,-0.14,-0.06,0.31
0.449,-0.11,-0.01,1.09,1.10
0.459,-0.04,0.49,1.39,1.47
0.469,-0.17,1.18,0.89,1.49
0.479,-0.11,1.52,0.69,1.67
0.489,0.23,1.60,0.87,1.83
0.499,0.50,1.48,0.41,1.62
0.509,1.18,-0.31,1.03,1.60
0.519,1.08,-1.88,-0.24,2.18
0.529,-0.13,-1.63,-0.95,1.89
0.539,-1.18,-1.10,-0.06,1.62
0.549,-1.27,-0.25,0.03,1.30
0.559,-0.27,0.81,-0.98,1.30
0.569,0.84,2.15,-1.22,2.61
0.579,1.16,3.10,0.18,3.31
0.589,0.72,3.97,1.45,4.29
0.599,-0.49,4.98,2.27,5.49
0.609,-0.49,4.19,2.54,4.93
0.619,-0.49,2.49,2.29,3.41
0.629,-1.02,1.14,0.67,1.67
0.639,-1.75,0.82,-0.45,1.98
0.649,-2.24,0.33,-0.15,2.27
0.659,-2.37,-0.68,0.58,2.53
0.669,-2.34,-1.37,0.68,2.80
0.679,-2.12,-1.72,0.56,2.79
0.689,-2.22,-1.68,1.02,2.97
0.699,-2.51,-1.02,1.40,3.05
0.709,-2.22,-0.39,1.17,2.54
0.719,-1.70,-0.17,0.98,1.97
0.729,-1.60,0.11,0.60,1.72
0.739,-1.90,0.40,0.64,2.05
0.749,-2.28,0.78,0.77,2.53
0.759,-2.56,1.91,-1.16,3.40
0.769,-0.65,-0.49,2.19,2.34
0.778,-0.73,-0.35,1.97,2.13
0.789,-1.21,-0.02,-1.45,1.89
0.799,-0.78,-0.95,-1.20,1.72
0.809,-0.23,-1.46,-1.99,2.48
0.818,0.08,-1.34,-1.84,2.28
0.829,0.97,-0.97,-1.03,1.71
0.838,2.77,-0.58,-1.77,3.34
0.849,2.85,-0.05,-2.20,3.60
0.858,2.59,0.42,-1.05,2.83
0.869,2.17,0.56,-1.32,2.60
0.879,1.65,0.47,-1.11,2.05
0.889,0.92,0.60,-0.28,1.13
0.899,0.24,0.65,0.14,0.71
0.909,0.12,0.44,0.22,0.51
0.919,0.22,0.27,-0.60,0.69
0.929,0.44,-0.62,-0.73,1.05
0.938,-0.68,-2.68,0.55,2.82
0.949,-2.98,-0.23,-0.23,2.99
0.958,2.64,4.48,1.26,5.34
0.968,3.87,4.36,1.18,5.95
0.979,1.03,2.56,-0.15,2.77
0.988,0.83,1.35,-0.43,1.65
0.998,1.40,0.82,0.68,1.76
1.008,1.64,0.66,0.53,1.85
1.018,0.47,-0.40,0.16,0.64
1.028,-0.34,-1.05,0.08,1.11
1.038,-0.91,-0.89,-0.31,1.30
1.048,-1.48,-1.40,-0.03,2.04
1.058,-0.96,-1.38,0.92,1.92
1.068,0.26,-1.09,-0.27,1.16
1.078,-2.37,0.10,2.74,3.62
1.088,-0.50,-0.06,2.16,2.22
1.098,-0.56,-0.88,0.83,1.33
1.108,-1.55,-0.87,-1.67,2.44
1.118,-2.63,-1.46,-2.07,3.65
1.128,-2.34,-2.00,-1.85,3.59
1.138,-1.84,-0.84,0.84,2.19
1.148,-1.75,-0.28,2.25,2.86
1.158,-1.01,0.58,1.97,2.28
1.168,-1.07,1.72,2.79,3.45
1.178,-1.64,2.83,3.69,4.93
1.188,-1.94,3.12,3.79,5.27
1.198,-2.36,2.50,3.50,4.90
1.208,-2.87,1.98,3.50,4.94
1.218,-3.23,1.76,3.62,5.16
1.228,-3.34,1.45,3.66,5.17
1.238,-3.54,1.23,3.70,5.26
1.248,-3.55,1.05,3.78,5.29
1.258,-3.61,0.35,3.55,5.07
1.268,-3.29,-0.27,3.37,4.72
1.278,-3.01,-0.46,3.56,4.69
1.288,-2.80,-0.57,2.77,3.98
1.298,-2.70,-0.51,1.40,3.08
1.308,-2.52,-0.27,0.21,2.55
1.318,-2.11,-0.20,-1.00,2.34
1.328,-1.44,-0.11,-1.25,1.91
1.338,-0.63,0.08,-0.52,0.82
1.348,0.41,0.08,-0.44,0.61
1.358,1.66,0.30,-0.56,1.78
1.368,2.78,1.44,0.35,3.15
1.378,3.94,2.99,-0.14,4.94
1.388,4.61,4.37,-1.82,6.61
1.398,4.47,5.69,-2.68,7.71
1.408,4.08,6.31,-3.67,8.37
1.418,3.59,5.91,-4.59,8.29
1.428,2.97,4.86,-4.81,7.45
1.438,2.59,3.35,-4.55,6.22
1.448,2.18,2.00,-4.36,5.27
1.458,1.83,1.16,-4.38,4.89
1.468,1.51,1.06,-4.19,4.58
1.478,1.33,1.29,-5.11,5.44
1.488,1.00,1.86,-4.81,5.25
1.498,0.57,2.68,-4.36,5.15
1.508,0.52,3.33,-4.19,5.38
1.518,0.70,3.27,-3.73,5.01
1.528,0.92,2.71,-3.34,4.40
1.538,1.13,2.40,-2.58,3.70
1.548,1.36,2.27,-1.78,3.19
1.558,1.76,2.05,-1.52,3.10
1.567,1.99,2.07,-0.98,3.03
1.578,2.13,1.96,-0.28,2.91
1.587,2.13,1.81,0.23,2.81
1.598,2.04,1.58,0.41,2.62
1.608,2.05,1.21,0.76,2.50
1.617,2.25,1.10,0.90,2.66
1.627,2.40,1.02,1.07,2.82
1.637,2.44,0.86,1.39,2.94
1.647,2.78,0.74,1.74,3.36
1.657,3.09,0.98,1.99,3.80
1.667,3.33,1.16,1.97,4.03
1.677,3.46,0.85,2.03,4.10
1.687,3.44,0.08,2.13,4.05
1.697,3.41,-0.68,1.98,4.00
1.707,3.27,-1.22,1.77,3.91
1.717,2.99,-1.53,1.72,3.78
1.727,2.85,-1.74,1.56,3.69
1.737,2.77,-1.82,1.32,3.57
1.747,2.65,-1.94,1.10,3.47
1.757,2.45,-1.92,1.30,3.37
1.767,2.25,-1.88,1.13,3.14
1.777,1.84,-1.75,0.91,2.70
1.787,1.45,-1.40,1.15,2.32
1.797,1.29,-1.17,0.67,1.87
1.807,1.00,-1.16,0.21,1.55
1.817,0.89,-1.36,0.23,1.64
1.827,0.74,-1.39,0.32,1.61
1.837,0.66,-1.42,0.17,1.58
1.847,0.75,-1.43,-0.00,1.61
1.857,0.79,-1.08,0.09,1.34
1.867,0.84,-0.56,0.42,1.10
1.877,0.85,-0.24,0.51,1.02
1.887,0.67,-0.07,0.38,0.78
1.897,0.54,-0.06,0.46,0.71
1.907,0.34,-0.16,0.64,0.75
1.917,0.19,-0.28,0.84,0.91
1.927,0.04,-0.15,0.35,0.38
1.937,-0.08,0.04,-0.10,0.13
1.947,-0.25,0.28,-0.20,0.43
1.957,-0.42,0.48,-0.26,0.69
1.967,-0.67,0.49,-0.33,0.89
1.977,-0.90,0.61,-0.09,1.09
1.987,-0.98,0.75,-0.08,1.24
1.997,-0.80,0.69,-0.66,1.25
2.007,-0.63,0.59,-0.86,1.22
2.017,-0.50,0.81,-0.54,1.10
2.027,-0.30,0.86,-0.31,0.96
2.037,-0.05,0.64,0.08,0.65
2.047,0.17,0.37,0.16,0.44
2.057,0.28,0.40,0.32,0.59
2.067,0.44,0.38,0.63,0.85
2.077,0.78,0.23,0.64,1.03
2.087,1.07,0.29,0.90,1.43
2.097,1.28,0.54,1.15,1.80
2.107,1.38,0.52,1.09,1.83
2.117,1.37,0.39,1.26,1.90
2.127,1.35,0.26,1.27,1.87
2.137,1.31,0.14,1.15,1.75
2.147,1.24,0.09,1.06,1.64
2.157,1.13,0.20,0.90,1.46
2.167,1.12,0.29,0.63,1.31
2.177,1.10,0.16,0.01,1.11
2.187,1.10,0.01,-0.56,1.24
2.197,1.07,-0.03,-0.61,1.23
2.207,0.93,0.02,-0.32,0.98
2.216,0.69,-0.04,-0.60,0.91
2.227,0.41,-0.15,-1.33,1.40
2.237,0.03,-0.06,-1.47,1.48
2.246,-0.44,0.40,-1.19,1.33
2.257,-0.76,0.56,-1.70,1.95
2.266,-1.07,0.34,-2.14,2.42
2.276,-1.44,0.06,-1.73,2.25
2.286,-1.58,-0.48,-1.57,2.28
2.297,-1.64,-1.02,-1.52,2.46
2.306,-1.69,-1.36,-1.37,2.56
2.316,-1.65,-1.43,-1.00,2.40
2.326,-1.54,-1.28,-0.86,2.18
2.336,-1.42,-0.92,-0.90,1.91
2.346,-1.46,-0.65,-1.03,1.90
2.356,-1.44,-0.74,-1.04,1.93
2.366,-1.39,-0.78,-0.66,1.73
2.376,-1.14,-0.83,-0.57,1.52
2.386,-0.84,-0.77,-0.37,1.20
2.396,-0.52,-0.60,-0.04,0.80
2.406,-0.11,-0.36,0.21,0.43
2.416,0.48,-0.06,0.87,0.99
2.426,1.16,0.10,1.56,1.95
2.436,1.70,-0.09,1.68,2.39
2.446,2.23,-0.46,1.57,2.77
2.456,2.50,-0.67,2.06,3.31
2.466,2.55,-0.30,3.14,4.06
2.476,2.44,0.16,3.22,4.04
2.486,2.19,0.61,2.78,3.59
2.496,1.62,0.74,1.92,2.62
2.506,0.85,-0.08,0.90,1.24
2.516,-0.18,-1.09,1.42,1.80
2.526,-0.77,-2.23,3.61,4.31
2.536,-0.41,-2.71,4.34,5.13
2.546,0.33,-2.80,3.96,4.86
2.556,1.16,-2.38,3.17,4.13
2.566,2.00,-1.44,2.39,3.43
2.576,2.23,0.07,0.38,2.26
2.586,2.50,0.80,-1.86,3.22
2.596,1.58,2.32,-2.83,3.98
2.606,0.94,1.76,-0.53,2.06
2.616,1.64,0.27,0.29,1.68
2.626,2.56,0.77,-2.50,3.66
2.636,2.55,1.78,-4.46,5.43
2.646,2.13,1.54,-4.25,5.00
2.656,1.26,1.33,-1.80,2.57
2.666,-0.14,1.02,-0.83,1.32
2.676,-2.14,0.19,-0.72,2.26
2.686,-4.05,0.19,-0.90,4.15
2.696,-4.24,0.67,-1.87,4.68
2.706,-3.60,0.59,-1.91,4.12
2.716,-2.84,0.25,-0.85,2.98
2.726,-1.87,-1.09,-0.30,2.19
2.736,-1.08,-2.01,1.22,2.59
2.746,-0.63,-1.41,3.13,3.49
2.756,-0.33,-0.37,2.37,2.43
2.765,-0.36,0.44,1.74,1.83
2.776,-0.58,0.56,1.63,1.82
2.786,-0.63,-0.18,0.86,1.08
2.796,-0.54,-0.98,0.77,1.36
2.806,-0.27,-1.11,1.22,1.67
2.816,0.03,-0.70,1.46,1.62
2.826,0.50,-0.58,0.09,0.77
2.836,1.19,-0.72,-0.80,1.61
2.846,1.42,-0.93,-0.61,1.80
2.856,1.12,-0.34,1.31,1.75
2.866,2.56,0.80,0.83,2.81
2.876,3.41,1.61,-1.08,3.92
2.886,2.55,1.54,-0.93,3.12
2.896,1.38,0.51,-1.16,1.87
2.905,0.59,-1.38,-1.25,1.95
2.915,0.46,-2.57,-1.65,3.09
2.926,0.62,-3.25,-2.33,4.05
2.936,0.97,-3.52,-1.87,4.10
2.946,0.79,-2.35,0.84,2.62
2.955,0.83,-0.40,1.32,1.61
2.965,-0.73,3.47,1.81,3.98
2.975,-0.37,6.31,-0.00,6.32
2.985,-0.66,6.83,-1.51,7.02
2.995,-1.50,5.35,-1.44,5.74
3.005,-0.98,3.04,-0.91,3.33
3.015,-0.49,1.93,0.02,1.99
3.025,-0.16,0.89,0.08,0.91
3.035,0.35,-0.06,-0.39,0.52
3.045,0.54,-0.65,-0.46,0.96
3.055,0.67,-0.81,-0.43,1.14
3.065,1.38,-0.53,-0.15,1.49
3.075,1.99,0.31,0.01,2.01
3.085,2.32,0.27,0.99,2.53
3.095,2.17,-0.32,1.27,2.53
3.105,1.77,0.24,1.60,2.39
3.115,0.86,2.66,1.46,3.15
3.125,-0.09,3.31,-0.77,3.40
3.135,-0.65,2.16,-1.80,2.89
3.145,-0.65,0.87,-1.53,1.88
3.155,-0.49,0.67,-1.92,2.09
3.165,-0.09,0.38,-1.37,1.42
3.175,0.65,-0.70,-0.14,0.97
3.185,1.31,-1.81,0.80,2.37
3.195,1.69,-2.49,1.01,3.18
3.205,1.48,-2.18,0.28,2.65
3.215,0.94,-1.47,0.10,1.75
3.225,0.91,-1.49,0.13,1.75
3.235,1.45,-1.43,-0.50,2.10
3.245,1.17,-0.23,-0.64,1.35
3.255,0.79,0.15,-0.44,0.91
3.265,0.50,0.31,-0.23,0.63
3.275,0.46,0.96,0.10,1.07
3.285,0.46,1.61,-0.07,1.68
3.295,0.22,2.03,-0.41,2.08
3.305,0.42,2.47,-0.48,2.55
3.315,0.62,2.60,-0.99,2.85
3.325,0.54,1.64,-0.77,1.89
3.335,0.16,0.04,-0.29,0.33
3.345,0.72,-1.09,0.12,1.31
3.355,0.46,-0.37,-0.64,0.87
3.365,0.31,0.11,-1.19,1.23
3.375,1.19,-1.95,-0.96,2.48
3.385,1.70,-1.22,-0.28,2.11
3.395,1.76,0.20,-1.02,2.05
3.405,0.54,1.24,-1.54,2.05
3.415,0.14,1.09,-1.28,1.69
3.425,0.32,1.45,-1.31,1.98
3.435,0.70,0.69,-1.50,1.79
3.445,1.23,0.19,-1.48,1.94
3.455,0.39,2.03,-1.02,2.31
3.465,0.18,2.05,-1.14,2.35
3.474,1.52,0.31,-1.55,2.20
3.485,1.67,0.19,-1.09,2.00
3.495,1.06,0.28,-1.11,1.56
3.505,0.81,0.17,-1.35,1.59
3.515,0.98,-0.00,-1.27,1.61
3.525,0.88,0.03,-1.03,1.36
3.535,0.90,-0.09,-1.40,1.67
3.545,1.65,-0.49,-1.35,2.18
3.555,1.65,-0.49,-0.86,1.93
3.564,0.80,-0.13,-1.02,1.30
3.574,0.46,-0.39,-0.99,1.16
3.585,0.59,-0.37,-0.88,1.12
3.595,0.71,-0.37,-1.06,1.33
3.604,0.71,-0.49,-1.22,1.50
3.614,0.60,-0.78,-1.33,1.66
3.624,0.50,-0.86,-1.38,1.70
3.634,0.32,-0.74,-1.19,1.44
3.645,0.18,-0.74,-1.06,1.31
3.654,0.13,-0.73,-0.94,1.20
3.664,0.15,-0.66,-0.82,1.06
3.675,0.22,-0.62,-0.69,0.95
3.685,0.33,-0.59,-0.52,0.85
3.695,0.45,-0.59,-0.42,0.85
3.704,0.56,-0.51,-0.46,0.88
3.714,0.75,-0.45,-0.52,1.02
3.724,1.02,-0.41,-0.61,1.25
3.734,1.21,-0.30,-0.73,1.45
3.744,1.34,-0.02,-0.86,1.59
3.754,1.48,0.36,-1.01,1.83
3.764,1.68,0.77,-1.14,2.17
3.774,1.91,1.20,-1.21,2.56
3.784,2.21,1.52,-1.16,2.93
3.794,2.57,1.66,-1.08,3.24
3.804,2.86,1.62,-1.04,3.44
3.814,2.89,1.39,-1.12,3.40
3.824,2.66,1.27,-1.26,3.20
3.834,2.56,1.29,-1.37,3.18
3.844,2.59,1.11,-1.51,3.20
3.854,2.63,1.01,-1.68,3.28
3.864,2.66,0.73,-1.80,3.29
3.874,2.61,0.31,-2.01,3.31
3.884,2.49,-0.11,-2.27,3.37
3.894,2.26,-0.44,-2.41,3.33
3.904,2.07,-0.70,-2.43,3.26
3.914,1.95,-0.66,-2.06,2.91
3.924,1.76,-0.17,-1.18,2.13
3.934,1.31,0.90,-0.30,1.62
3.944,0.49,2.56,0.67,2.69
3.954,-0.50,4.85,1.59,5.12
3.964,-1.41,6.58,1.78,6.97
3.974,-2.59,7.06,1.94,7.76
3.984,-3.91,5.98,2.08,7.44
3.994,-4.84,3.26,1.89,6.13
4.004,-4.88,0.16,1.53,5.12
4.014,-3.72,-2.35,0.96,4.51
4.024,-2.25,-3.69,0.82,4.40
4.034,-1.39,-4.29,0.94,4.61
4.044,-0.97,-4.28,0.87,4.47
4.054,-0.65,-3.70,0.45,3.78
4.064,-0.46,-2.98,0.02,3.01
4.073,-0.39,-2.67,-0.42,2.73
4.084,-0.47,-2.22,-0.89,2.43
4.094,-0.58,-1.19,-1.27,1.83
4.104,-0.53,0.22,-1.28,1.40
4.114,-0.23,1.71,-1.02,2.01
4.124,0.29,2.83,-0.75,2.95
4.134,0.84,2.98,-0.67,3.17
4.144,1.09,2.19,-0.57,2.51
4.154,1.11,1.33,-0.44,1.79
4.163,0.87,0.59,-0.45,1.14
4.174,0.53,-0.18,-0.59,0.81
4.184,0.36,-0.86,-0.88,1.28
4.194,0.34,-1.40,-1.21,1.88
4.204,0.53,-1.81,-1.45,2.38
4.214,0.63,-2.01,-1.58,2.63
4.224,0.71,-2.08,-1.55,2.69
4.233,0.85,-2.08,-1.37,2.63
4.244,0.91,-2.13,-1.28,2.65
4.254,0.95,-1.88,-1.10,2.38
4.263,0.96,-1.44,-0.88,1.94
4.273,0.92,-1.01,-0.81,1.59
4.283,0.88,-0.65,-0.87,1.40
4.293,0.86,-0.30,-1.02,1.36
4.303,0.91,0.02,-1.14,1.46
4.314,0.94,0.11,-1.27,1.58
4.323,1.06,0.34,-1.32,1.73
4.333,1.14,0.60,-1.33,1.85
4.344,1.00,0.77,-1.36,1.86
4.354,0.65,0.71,-1.44,1.73
4.363,0.07,0.45,-1.54,1.60
4.373,-0.63,0.13,-1.55,1.68
4.383,-1.18,-0.09,-1.64,2.02
4.393,-1.41,-0.16,-1.84,2.33
4.403,-1.23,-0.28,-2.12,2.47
4.413,-0.90,-0.42,-2.43,2.62
4.423,-0.41,-0.15,-2.73,2.76
4.433,0.09,0.44,-2.97,3.00
4.443,0.58,0.98,-2.89,3.10
4.453,1.20,1.26,-2.54,3.08
4.463,1.84,1.52,-2.50,3.46
4.473,2.12,1.74,-2.62,3.79
4.483,2.15,2.15,-2.78,4.12
4.493,2.13,2.50,-2.67,4.23
4.503,2.01,2.64,-2.13,3.95
4.513,1.89,2.58,-1.89,3.72
4.523,1.73,2.35,-1.84,3.45
4.533,1.49,1.94,-1.45,2.85
4.543,1.43,1.32,-0.81,2.11
4.553,1.59,0.69,-0.09,1.74
4.563,1.41,0.46,0.54,1.58
4.573,0.65,0.89,1.18,1.61
4.583,-0.48,1.20,2.21,2.56
4.593,-1.43,0.77,2.52,3.00
4.603,-2.18,-0.25,2.61,3.41
4.613,-2.66,-1.32,2.46,3.86
4.623,-3.16,-2.15,2.26,4.44
4.633,-3.70,-2.11,2.02,4.71
4.643,-4.19,-0.99,1.80,4.66
4.653,-4.24,0.41,1.80,4.63
4.663,-3.37,1.30,2.36,4.31
4.673,-2.64,2.19,3.17,4.67
4.683,-1.89,3.12,3.54,5.08
4.693,-0.84,3.41,3.49,4.95
4.703,0.53,2.31,3.13,3.93
4.713,1.86,0.18,2.44,3.07
4.723,2.35,-1.14,1.61,3.07
4.733,2.25,-1.32,0.82,2.74
4.743,2.12,-1.56,0.19,2.64
4.753,1.82,-1.75,0.23,2.54
4.763,1.62,-1.59,0.66,2.37
4.773,1.79,-1.20,0.74,2.28
4.783,1.92,-1.12,0.59,2.30
4.793,1.86,-1.26,0.31,2.27
4.803,1.83,-1.51,0.06,2.37
4.813,1.68,-1.59,-0.14,2.32
4.823,1.47,-1.71,-0.52,2.31
4.833,1.22,-1.47,-0.81,2.08
4.843,0.76,-1.36,-1.00,1.85
4.853,0.27,-1.31,-1.25,1.83
4.862,-0.04,-1.15,-1.25,1.70
4.873,0.01,-1.05,-0.88,1.37
4.883,0.33,-0.99,-0.30,1.09
4.893,0.63,-0.78,0.25,1.04
4.903,0.87,-0.92,0.49,1.35
4.912,0.92,-1.39,0.55,1.75
4.922,0.81,-1.83,0.70,2.12
4.932,0.78,-2.12,0.78,2.39
4.943,0.86,-1.50,0.78,1.90
4.953,1.22,-0.16,0.52,1.34
4.963,1.80,2.05,-0.23,2.74
4.973,2.94,4.28,-1.51,5.41
4.983,4.30,5.06,-1.95,6.92
4.992,4.71,4.65,-1.40,6.77
5.002,3.32,3.31,-1.25,4.86
5.012,1.17,1.23,-2.39,2.93
5.022,-0.30,-1.16,-3.22,3.44
5.032,-0.97,-2.70,-3.04,4.18
5.042,-1.02,-2.21,-1.91,3.09
5.052,-1.07,0.38,-0.68,1.33
5.062,-1.22,4.10,0.42,4.30
5.072,-1.14,7.37,1.64,7.64
5.082,-1.76,9.05,2.36,9.52
5.093,-3.40,9.46,3.29,10.57
5.102,-5.44,9.38,3.97,11.55
5.112,-6.67,6.45,3.86,10.05
5.122,-5.44,0.17,3.05,6.24
5.132,-3.51,-4.10,2.37,5.89
5.142,-2.11,-5.95,1.80,6.57
5.152,-1.12,-5.45,1.33,5.72
5.162,-0.39,-3.51,0.77,3.62
5.172,0.44,-2.05,0.12,2.10
5.182,1.08,-1.56,-0.39,1.94
5.192,1.31,-1.89,-0.54,2.36
5.202,1.16,-1.87,-0.34,2.23
5.212,1.03,-1.33,-0.36,1.73
5.222,0.98,-1.38,-0.64,1.81
5.232,0.81,-1.68,-0.84,2.05
5.242,0.18,-1.99,-0.85,2.18
5.252,-0.51,-2.21,-1.15,2.54
5.262,-1.04,-1.93,-1.65,2.75
5.272,-1.51,-1.32,-1.80,2.70
5.282,-1.57,-0.73,-1.60,2.36
5.292,-1.36,-0.33,-1.14,1.80
5.302,-1.09,-0.33,-0.68,1.33
5.312,-0.77,-0.59,-0.63,1.16
5.322,-0.55,-1.04,-0.70,1.37
5.332,-0.51,-1.37,-0.85,1.69
5.342,-0.49,-1.13,-0.95,1.56
5.352,-0.52,-0.62,-1.04,1.32
5.362,-0.64,-0.25,-1.21,1.39
5.372,-0.66,0.22,-1.22,1.40
5.382,-0.32,0.61,-1.45,1.61
5.392,0.23,0.76,-1.76,1.93
5.402,0.71,0.66,-1.81,2.06
5.412,0.98,0.33,-1.55,1.86
5.422,1.05,-0.04,-1.22,1.61
5.432,1.02,-0.67,-1.00,1.58
5.442,0.85,-1.17,-1.43,2.03
5.452,0.56,-1.43,-2.25,2.73
5.462,0.35,-1.22,-3.35,3.58
5.472,0.39,-0.85,-4.44,4.53
5.482,0.95,-0.24,-4.91,5.01
5.492,1.73,0.75,-4.53,4.90
5.502,2.24,1.80,-3.95,4.89
5.512,2.84,2.43,-3.25,4.95
5.521,3.37,2.48,-2.55,4.90
5.532,3.74,2.04,-2.10,4.75
5.542,3.84,1.62,-1.86,4.57
5.552,3.48,1.39,-1.81,4.16
5.562,2.60,0.90,-1.95,3.37
5.572,2.04,-0.16,-1.77,2.70
5.582,2.05,-0.90,-1.27,2.57
5.592,2.04,-1.28,-0.63,2.49
5.601,1.31,-1.34,0.40,1.91
5.612,0.44,-1.11,1.36,1.81
5.622,-0.44,-0.46,2.13,2.22
5.632,-1.36,0.25,2.75,3.07
5.641,-2.68,1.64,3.31,4.56
5.651,-4.00,3.36,3.69,6.40
5.661,-4.55,4.57,4.03,7.60
5.671,-4.54,4.97,4.30,7.99
5.681,-5.21,5.09,4.03,8.32
5.691,-5.59,5.88,3.08,8.68
5.701,-4.96,6.68,2.41,8.66
5.711,-3.20,5.24,2.68,6.70
5.722,-1.07,1.51,2.81,3.37
5.731,0.56,-0.64,2.06,2.23
5.741,1.36,-2.12,1.66,3.02
5.751,1.45,-2.22,1.79,3.20
5.761,2.41,-0.67,1.23,2.79
5.771,3.36,-0.28,0.77,3.46
5.781,3.91,-0.10,0.97,4.03
5.791,4.59,0.04,1.19,4.74
5.801,4.79,-1.28,0.66,5.00
5.811,4.29,-3.22,0.13,5.37
5.821,2.96,-5.05,-0.13,5.86
5.831,1.42,-5.79,-0.16,5.97
5.841,0.38,-5.16,-0.33,5.18
5.851,-0.49,-4.33,-0.79,4.43
5.861,-0.80,-3.51,-1.44,3.88
5.871,-0.78,-3.16,-1.69,3.67
5.881,-0.70,-2.92,-1.47,3.35
5.891,-0.72,-2.33,-0.88,2.59
5.901,-0.66,-1.67,-0.03,1.79
5.911,-0.78,-0.78,0.99,1.48
5.921,-0.86,-0.11,1.50,1.74
5.931,-0.89,-0.04,1.45,1.70
5.941,-0.63,-0.13,0.93,1.13
5.951,-0.28,-0.00,0.19,0.34
5.961,0.24,0.99,-1.07,1.48
5.971,1.28,2.36,-1.69,3.17
5.981,1.84,3.98,-1.38,4.59
5.991,1.83,4.78,-1.43,5.32
6.001,1.41,3.77,-2.03,4.51
6.011,0.71,1.47,-3.92,4.24
6.021,0.03,-1.11,-4.54,4.67
6.031,-0.52,-2.37,-3.97,4.65
6.041,-0.77,-1.71,-3.62,4.08
6.051,-0.84,0.02,-2.12,2.28
6.061,-1.05,2.72,0.48,2.95
6.071,-0.86,6.97,3.42,7.82
6.081,-1.05,10.77,5.47,12.13
6.092,-2.22,13.54,5.92,14.94
6.101,-4.02,14.54,5.03,15.90
6.111,-4.65,8.64,3.78,10.51
6.121,-3.69,-0.65,3.48,5.11
6.131,-2.59,-4.86,2.46,6.03
6.141,-2.30,-5.94,2.00,6.68
6.151,-2.50,-4.81,1.81,5.71
6.161,-2.34,-2.41,0.95,3.49
6.171,-1.64,-0.91,-0.08,1.88
6.181,-0.88,-0.84,-0.68,1.39
6.191,-0.79,-0.83,-0.69,1.33
6.201,-0.97,-0.21,-0.63,1.18
6.211,-0.76,-0.24,-1.00,1.28
6.221,-0.44,-0.87,-1.19,1.53
6.231,-0.62,-1.81,-1.01,2.16
6.241,-0.69,-2.51,-1.12,2.83
6.251,-0.57,-2.74,-1.64,3.24
6.261,-0.59,-2.78,-2.05,3.50
6.270,-0.68,-2.55,-1.76,3.17
6.280,-0.63,-2.00,-1.20,2.42
6.291,-0.40,-1.43,-0.98,1.78
6.301,-0.11,-1.13,-0.95,1.48
6.311,-0.13,-1.49,-0.91,1.76
6.320,-0.33,-2.06,-0.87,2.26
6.331,-0.65,-2.32,-1.11,2.66
6.341,-1.07,-1.87,-1.17,2.45
6.351,-1.81,-1.14,-1.06,2.39
6.361,-2.40,-0.22,-0.96,2.59
6.370,-2.35,0.78,-1.17,2.74
6.380,-1.57,1.52,-1.32,2.55
6.390,-0.56,1.59,-1.42,2.20
6.400,0.54,0.92,-1.62,1.94
6.410,1.75,-0.38,-1.90,2.61
6.420,2.81,-1.96,-2.41,4.19
6.430,3.48,-3.03,-3.18,5.61
6.440,3.69,-3.21,-4.03,6.33
6.450,3.74,-2.86,-4.71,6.66
6.460,3.87,-1.97,-5.27,6.83
6.470,4.00,-0.31,-5.20,6.57
6.480,3.96,1.89,-3.95,5.91
6.490,3.71,4.14,-2.16,5.96
6.500,3.35,5.84,-0.76,6.78
6.510,2.95,6.37,-0.03,7.02
6.520,2.49,5.21,-0.04,5.77
6.530,2.16,2.99,-0.73,3.76
6.540,1.64,1.19,-1.53,2.54
6.550,1.18,0.10,-2.31,2.59
6.560,0.95,-0.92,-2.60,2.92
6.570,0.76,-1.93,-2.09,2.94
6.580,0.21,-2.59,-1.20,2.86
6.590,-0.49,-2.42,-0.49,2.52
6.600,-1.08,-1.98,-0.18,2.26
6.610,-1.84,-1.78,0.92,2.72
6.620,-2.82,-0.50,2.89,4.07
6.630,-3.59,1.14,3.69,5.27
6.640,-4.21,2.88,3.77,6.34
6.650,-4.07,4.38,3.43,6.89
6.660,-3.47,4.91,3.59,7.00
6.670,-3.82,5.23,3.80,7.50
6.680,-4.36,5.50,3.52,7.86
6.690,-3.66,5.18,3.26,7.13
6.700,-1.71,4.04,3.50,5.61
6.710,-0.19,1.68,3.62,4.00
6.720,0.63,-0.64,2.77,2.91
6.730,1.20,-1.47,1.93,2.70
6.740,1.88,-1.07,1.83,2.83
6.750,3.00,-0.93,1.56,3.51
6.760,3.62,-1.46,1.18,4.08
6.770,3.96,-1.55,1.45,4.49
6.780,4.23,-0.92,1.39,4.55
6.790,4.54,-1.03,0.79,4.72
6.800,4.54,-3.15,-0.12,5.53
6.810,3.99,-5.07,-0.46,6.46
6.820,3.10,-6.20,-0.17,6.94
6.830,1.95,-5.86,-0.17,6.17
6.840,0.96,-4.12,-0.41,4.25
6.850,0.39,-2.33,-0.99,2.56
6.860,-0.29,-1.15,-1.53,1.93
6.870,-0.73,0.06,-1.80,1.94
6.879,-1.13,0.85,-1.53,2.08
6.890,-1.38,1.00,-0.59,1.81
6.899,-1.58,0.74,0.54,1.82
6.910,-1.97,0.90,0.96,2.37
6.919,-2.10,0.78,0.76,2.36
6.930,-2.02,-0.02,0.79,2.17
6.940,-2.14,-0.47,0.39,2.22
6.950,-2.07,-0.44,-0.52,2.18
6.960,-1.43,0.02,-1.34,1.96
6.969,-0.59,0.90,-1.82,2.11
6.979,-0.14,2.19,-1.86,2.88
6.989,0.26,2.87,-2.15,3.59
6.999,0.47,1.78,-3.31,3.79
7.009,0.01,-0.37,-4.02,4.03
7.019,-0.56,-1.93,-3.52,4.05
7.029,-0.63,-2.43,-3.74,4.51
7.039,-0.08,-2.13,-3.23,3.87
7.049,0.48,-0.94,-1.12,1.54
7.059,0.65,2.03,1.37,2.53
7.069,0.99,5.62,3.34,6.61
7.079,0.51,9.00,4.69,10.16
7.089,-0.81,12.45,5.05,13.46
7.100,-2.91,15.20,5.37,16.38
7.109,-4.44,11.76,4.61,13.39
7.119,-3.78,1.25,4.40,5.94
7.129,-2.90,-4.94,3.42,6.67
7.139,-2.68,-6.88,2.34,7.74
7.149,-2.86,-6.35,1.36,7.10
7.159,-2.67,-4.39,0.30,5.15
7.169,-1.84,-2.81,-0.72,3.43
7.179,-0.88,-1.47,-1.12,2.05
7.189,-0.27,0.42,-0.97,1.09
7.199,0.09,1.14,-1.25,1.70
7.209,0.07,0.23,-1.50,1.52
7.219,-0.50,-1.09,-1.21,1.70
7.229,-1.41,-2.11,-0.98,2.72
7.239,-1.85,-2.41,-0.92,3.17
7.249,-1.48,-2.24,-0.80,2.80
7.259,-1.07,-2.46,-0.81,2.80
7.269,-0.84,-2.77,-0.46,2.93
7.279,-0.67,-3.04,0.03,3.11
7.289,-0.94,-3.23,0.28,3.38
7.299,-0.89,-2.52,0.20,2.68
7.309,-0.83,-1.84,0.23,2.03
7.319,-0.64,-1.37,0.04,1.51
7.329,-0.50,-1.04,-0.57,1.28
7.339,-0.43,-0.79,-1.32,1.60
7.349,-0.17,-0.16,-1.75,1.77
7.359,0.22,1.07,-1.82,2.12
7.369,0.47,1.99,-1.70,2.66
7.379,0.89,2.09,-1.26,2.60
7.389,1.29,1.81,-0.62,2.30
7.399,1.47,1.01,-0.29,1.81
7.409,1.66,-0.02,-0.53,1.74
7.419,2.11,-0.84,-1.60,2.78
7.429,2.64,-1.59,-3.10,4.37
7.439,3.35,-2.23,-4.55,6.08
7.449,4.28,-2.19,-5.38,7.21
7.459,4.96,-1.48,-5.03,7.22
7.469,5.50,-0.71,-4.94,7.43
7.479,6.01,0.30,-4.73,7.66
7.489,6.31,1.13,-4.08,7.60
7.499,5.91,1.79,-2.91,6.82
7.509,4.72,2.34,-1.68,5.53
7.519,3.73,2.38,-0.72,4.48
7.529,3.25,1.65,-0.23,3.65
7.539,3.11,0.81,0.13,3.22
7.549,2.94,0.62,0.59,3.06
7.559,2.50,1.08,1.09,2.93
7.569,1.87,1.84,1.42,2.98
7.579,1.09,2.15,1.50,2.84
7.589,-0.17,2.49,2.00,3.20
7.598,-1.52,2.45,2.54,3.84
7.609,-3.22,2.35,3.72,5.45
7.618,-5.03,2.75,4.46,7.26
7.629,-6.44,3.89,4.36,8.70
7.639,-7.36,5.59,3.96,10.05
7.649,-7.92,6.70,3.37,10.91
7.659,-6.92,6.19,3.11,9.79
7.669,-4.62,4.94,3.60,7.66
7.679,-2.15,2.94,4.31,5.65
7.689,-0.06,-0.21,4.61,4.61
7.698,1.47,-2.17,3.93,4.72
7.708,1.97,-2.83,3.25,4.73
7.718,2.24,-2.93,2.82,4.64
7.729,2.97,-2.37,2.10,4.34
7.738,3.99,-2.03,1.16,4.62
7.748,4.52,-2.61,0.37,5.23
7.758,4.41,-2.31,0.27,4.99
7.769,4.17,-1.88,0.51,4.61
7.778,3.73,-3.12,-0.21,4.87
7.788,2.32,-6.01,-1.35,6.58
7.798,0.20,-6.96,-1.49,7.12
7.808,-1.89,-6.03,-1.57,6.52
7.818,-3.40,-4.41,-1.55,5.77
7.828,-3.51,-2.69,-1.48,4.66
7.838,-2.39,-1.96,-1.57,3.47
7.848,-1.26,-2.13,-1.08,2.70
7.858,-0.57,-1.61,-0.39,1.75
7.868,-0.14,-0.73,0.12,0.75
7.878,0.18,0.08,0.71,0.74
7.888,0.24,0.63,1.20,1.38
7.898,0.94,0.48,1.22,1.61
7.908,1.83,0.26,1.29,2.25
7.918,2.57,1.31,0.63,2.95
7.928,3.67,3.35,-1.12,5.10
7.938,5.34,5.10,-2.16,7.69
7.948,6.47,5.46,-1.88,8.67
7.958,5.67,4.21,-1.28,7.18
7.968,2.79,2.67,-1.47,4.13
7.978,0.61,0.53,-2.27,2.41
7.988,-0.01,-1.71,-2.61,3.12
7.998,-0.03,-2.28,-2.36,3.28
8.008,-0.24,-0.51,-1.38,1.49
8.018,-0.82,2.25,-0.12,2.40
8.028,-1.32,5.78,2.05,6.27
8.038,-2.53,9.97,4.71,11.31
8.049,-4.74,13.38,5.47,15.21
8.058,-7.13,14.51,3.71,16.58
8.068,-8.18,10.38,2.53,13.46
8.078,-6.56,0.84,3.19,7.35
8.088,-4.58,-4.52,3.05,7.12
8.098,-3.74,-6.51,2.55,7.93
8.108,-3.28,-5.87,1.89,6.99
8.118,-3.00,-3.79,1.23,4.99
8.128,-2.19,-1.95,0.36,2.95
8.138,-0.59,-0.60,-0.26,0.88
8.148,1.01,-0.23,-0.90,1.37
8.158,1.96,0.12,-1.59,2.52
8.168,2.20,0.19,-2.00,2.98
8.178,2.26,0.03,-1.89,2.95
8.188,2.09,-1.14,-1.41,2.77
8.198,2.01,-2.55,-1.11,3.43
8.208,2.02,-3.65,-1.40,4.40
8.218,1.66,-4.32,-1.87,4.99
8.228,0.98,-4.33,-1.88,4.83
8.238,0.21,-4.02,-1.65,4.35
8.248,-0.89,-4.03,-1.18,4.29
8.258,-2.02,-3.91,-0.67,4.45
8.268,-3.04,-3.31,-0.57,4.53
8.278,-4.04,-2.36,-0.62,4.72
8.288,-4.49,-1.10,-0.73,4.68
8.297,-3.91,0.34,-0.90,4.03
8.307,-2.72,1.40,-0.98,3.22
8.317,-0.90,2.19,-0.77,2.49
8.328,0.62,2.07,-0.91,2.35
8.337,1.50,1.24,-1.60,2.52
8.347,2.21,-0.01,-2.37,3.24
8.357,3.00,-1.49,-3.03,4.52
8.368,3.77,-2.78,-3.36,5.76
8.378,4.12,-3.29,-3.57,6.37
8.387,3.87,-3.06,-3.62,6.12
8.397,3.52,-2.31,-3.62,5.55
8.408,3.44,-1.24,-3.64,5.16
8.418,3.37,0.58,-3.10,4.62
8.427,3.31,2.96,-2.48,5.09
8.437,3.35,4.91,-2.44,6.43
8.447,3.47,5.27,-2.98,6.98
8.457,3.50,4.00,-3.38,6.30
8.467,3.35,2.39,-3.41,5.35
8.477,2.91,1.26,-3.01,4.37
8.487,2.39,0.23,-2.32,3.34
8.497,1.89,-0.58,-1.39,2.42
8.507,1.26,-0.81,-0.20,1.51
8.517,0.67,-0.69,0.85,1.29
8.527,0.05,-1.06,1.56,1.88
8.537,-0.80,-1.20,2.69,3.06
8.547,-1.43,-0.81,3.93,4.26
8.557,-2.18,0.43,4.69,5.19
8.567,-3.69,3.06,5.01,6.93
8.577,-5.22,6.12,5.03,9.48
8.587,-6.57,8.95,4.69,12.05
8.598,-7.51,10.16,3.39,13.08
8.607,-6.79,9.15,1.55,11.50
8.617,-3.81,5.02,1.02,6.38
8.627,-1.21,0.13,1.60,2.02
8.637,0.08,-3.57,2.14,4.17
8.647,0.74,-5.12,2.20,5.62
8.657,0.81,-5.02,2.69,5.76
8.667,1.15,-4.19,2.76,5.15
8.677,1.86,-3.06,2.14,4.17
8.687,2.84,-2.05,1.69,3.89
8.697,3.83,-0.71,1.80,4.29
8.707,4.69,-0.39,1.93,5.09
8.717,5.00,-1.64,1.24,5.40
8.727,4.89,-2.94,0.72,5.75
8.737,3.89,-4.17,0.64,5.74
8.747,1.88,-4.64,0.58,5.03
8.757,-0.20,-3.46,0.14,3.47
8.767,-1.61,-2.27,-0.60,2.85
8.777,-2.05,-1.35,-1.25,2.76
8.787,-1.73,-1.06,-1.69,2.64
8.797,-1.17,-1.34,-1.49,2.33
8.807,-0.69,-1.23,-0.79,1.62
8.817,-0.45,-0.65,0.01,0.79
8.827,-0.42,-0.07,0.87,0.97
8.836,-0.71,-0.22,1.25,1.45
8.847,-0.75,-0.93,0.94,1.52
8.857,-0.50,-1.06,0.22,1.20
8.867,0.25,0.02,-0.16,0.29
8.877,1.51,1.26,-0.52,2.04
8.887,2.65,3.32,-0.36,4.26
8.897,3.06,5.83,-0.22,6.58
8.907,2.87,5.50,-1.02,6.28
8.917,1.67,2.55,-2.57,3.99
8.927,0.27,0.40,-3.42,3.45
8.937,-0.34,-0.54,-3.14,3.20
8.947,-0.54,-0.35,-3.30,3.36
8.956,-0.68,1.29,-2.48,2.88
8.967,-0.29,4.19,0.05,4.20
8.977,0.10,7.81,3.57,8.58
8.987,-1.19,10.20,5.32,11.57
8.997,-3.76,11.99,5.83,13.85
9.007,-6.57,13.18,4.83,15.50
9.017,-8.07,7.33,4.12,11.66
9.027,-7.13,-1.05,4.62,8.56
9.036,-5.95,-5.10,3.85,8.73
9.046,-5.16,-6.53,2.60,8.72
9.056,-4.81,-5.54,1.74,7.55
9.066,-4.30,-3.39,0.99,5.56
9.076,-3.29,-2.18,-0.19,3.96
9.086,-1.63,-1.51,-1.05,2.45
9.096,-0.14,-1.02,-1.23,1.60
9.106,0.48,0.15,-1.00,1.12
9.116,0.51,0.61,-0.67,1.04
9.126,0.42,0.15,-0.36,0.57
9.136,0.43,-0.72,-0.40,0.93
9.146,0.45,-1.81,-1.00,2.11
9.156,0.49,-2.91,-1.92,3.52
9.166,0.25,-3.07,-2.59,4.02
9.176,0.12,-2.93,-2.85,4.09
9.186,0.04,-2.94,-2.50,3.86
9.196,-0.38,-2.73,-1.43,3.10
9.206,-0.79,-2.14,-0.64,2.37
9.216,-1.07,-1.46,-0.36,1.85
9.226,-1.24,-1.20,-0.16,1.74
9.236,-1.26,-1.25,-0.21,1.79
9.246,-1.37,-1.20,-0.50,1.89
9.256,-1.43,-0.75,-1.09,1.95
9.266,-1.38,0.05,-1.57,2.10
9.276,-1.02,0.71,-2.09,2.43
9.286,-0.32,1.00,-2.41,2.63
9.296,0.48,0.75,-2.46,2.61
9.306,1.35,0.06,-2.25,2.62
9.316,2.19,-0.90,-2.00,3.10
9.326,2.78,-1.88,-1.89,3.85
9.336,2.97,-2.33,-1.98,4.26
9.346,2.63,-2.18,-2.51,4.23
9.356,2.42,-1.90,-3.47,4.64
9.366,2.70,-1.54,-4.71,5.64
9.376,3.12,-0.84,-5.19,6.11
9.386,3.32,0.62,-4.59,5.70
9.396,3.45,2.69,-3.50,5.60
9.406,3.61,4.39,-2.62,6.26
9.416,3.81,4.40,-2.16,6.21
9.426,4.13,2.47,-1.83,5.15
9.436,4.24,0.65,-1.62,4.58
9.446,4.08,-0.09,-1.50,4.35
9.456,3.95,-0.46,-1.39,4.21
9.466,3.77,-1.03,-1.06,4.04
9.476,3.34,-1.39,-0.69,3.68
9.486,2.70,-1.09,-0.30,2.93
9.496,1.84,-0.34,0.46,1.93
9.506,0.64,0.73,1.82,2.06
9.516,-0.63,1.46,2.92,3.33
9.526,-1.80,2.00,3.51,4.43
9.536,-3.65,2.88,4.15,6.23
9.546,-5.47,4.49,4.20,8.22
9.556,-6.66,6.22,3.90,9.91
9.566,-7.55,7.52,3.01,11.07
9.576,-7.64,8.57,2.16,11.68
9.586,-5.27,7.75,2.27,9.65
9.596,-2.30,4.16,3.07,5.66
9.606,-0.06,1.41,3.90,4.15
9.616,1.56,-0.59,3.67,4.03
9.626,2.00,-1.87,2.79,3.91
9.635,1.94,-1.45,2.58,3.54
9.646,2.63,-0.66,1.86,3.29
9.655,3.60,-0.28,1.34,3.86
9.665,3.91,-0.77,1.11,4.14
9.675,4.13,-1.20,1.41,4.53
9.686,4.26,-1.52,1.25,4.69
9.696,3.93,-2.83,0.35,4.85
9.706,3.19,-3.99,-0.13,5.11
9.715,1.83,-5.21,-0.31,5.53
9.725,0.26,-6.19,-0.63,6.22
9.736,-0.89,-6.05,-1.03,6.20
9.745,-1.84,-5.30,-1.32,5.77
9.755,-2.61,-4.51,-1.71,5.48
9.765,-2.80,-3.95,-2.11,5.28
9.775,-2.56,-3.97,-2.05,5.15
9.785,-2.05,-3.80,-1.42,4.54
9.795,-1.72,-3.04,-0.40,3.51
9.805,-1.48,-2.01,0.75,2.61
9.815,-1.48,-1.03,1.69,2.47
9.825,-1.87,-0.30,1.93,2.70
9.835,-2.15,0.96,1.30,2.69
9.845,-1.49,2.94,0.09,3.30
9.855,0.41,5.42,-1.14,5.55
9.865,2.91,7.28,-1.77,8.03
9.875,4.40,7.80,-0.78,8.99
9.886,4.40,5.67,0.47,7.19
9.895,2.99,1.87,-0.71,3.60
9.905,1.06,-0.61,-3.23,3.45
9.915,-0.17,-2.34,-3.84,4.50
9.925,-0.56,-2.60,-3.33,4.26
9.935,-0.29,-1.76,-3.20,3.66
9.945,-0.54,-0.01,-1.61,1.69
9.955,-0.90,4.20,2.04,4.76
9.965,-1.66,9.34,5.23,10.83
9.975,-2.81,14.32,5.62,15.64
9.986,-4.62,18.31,5.20,19.59
9.995,-6.81,14.54,4.47,16.67
10.005,-6.69,2.03,5.17,8.70
10.015,-5.38,-4.91,3.92,8.27
10.025,-4.78,-7.14,2.45,8.94
10.035,-4.77,-6.41,2.31,8.32
10.045,-4.47,-4.87,1.79,6.85
10.055,-3.53,-3.39,0.23,4.90
10.065,-2.06,-1.15,-0.76,2.48
10.075,-0.36,0.51,-1.45,1.58
10.085,0.66,0.64,-2.03,2.23
10.095,1.00,0.51,-1.92,2.22
10.105,1.27,0.07,-1.58,2.02
10.115,1.42,-0.46,-1.32,1.99
10.125,1.40,-0.93,-1.15,2.03
10.135,1.41,-1.83,-0.89,2.47
10.145,1.30,-2.47,-1.16,3.02
10.155,1.12,-2.27,-1.26,2.83
10.165,0.82,-1.83,-0.61,2.10
10.175,0.47,-1.66,-0.29,1.75
10.185,-0.05,-1.87,-0.61,1.97
10.195,-0.39,-2.16,-0.63,2.28
10.205,-0.71,-2.63,-0.48,2.77
10.215,-0.64,-2.43,-0.54,2.57
10.225,-0.54,-2.19,-0.74,2.37
10.235,-0.96,-2.25,-0.97,2.63
10.245,-1.72,-1.89,-1.17,2.82
10.255,-2.39,-0.98,-1.51,3.00
10.265,-2.49,-0.09,-1.92,3.14
10.275,-1.96,0.47,-2.28,3.04
10.285,-1.08,0.29,-2.54,2.78
10.295,-0.07,-0.85,-2.77,2.90
10.305,0.98,-2.33,-2.98,3.90
10.315,1.67,-3.06,-3.02,4.61
10.325,1.89,-2.85,-3.11,4.63
10.335,2.37,-2.07,-3.47,4.68
10.345,3.37,-1.14,-3.90,5.28
10.355,4.43,0.06,-4.06,6.01
10.365,5.11,1.57,-3.67,6.48
10.375,5.29,3.16,-2.72,6.74
10.384,4.93,4.17,-1.73,6.68
10.395,4.13,4.21,-1.39,6.06
10.404,3.31,3.37,-1.51,4.96
10.414,2.80,2.08,-1.44,3.77
10.424,2.75,1.12,-1.51,3.33
10.434,2.78,0.63,-1.53,3.24
10.445,2.60,0.34,-1.24,2.90
10.454,2.22,0.37,-0.82,2.39
10.464,1.57,0.65,-0.36,1.74
10.474,0.53,1.38,0.50,1.56
10.484,-0.85,1.58,1.72,2.48
10.494,-2.07,1.11,2.39,3.35
10.504,-3.38,1.00,3.18,4.75
10.514,-5.02,1.24,3.83,6.44
10.524,-6.16,2.11,3.62,7.45
10.534,-6.62,3.46,3.00,8.05
10.544,-6.52,4.70,2.54,8.43
10.554,-5.62,5.50,2.72,8.31
10.564,-4.10,5.78,3.47,7.89
10.574,-2.08,4.76,4.36,6.78
10.584,-0.35,3.14,4.91,5.84
10.594,1.00,1.13,4.62,4.86
10.604,1.99,-0.17,3.61,4.12
10.614,2.42,-1.22,2.78,3.89
10.624,2.71,-1.31,2.63,4.00
10.634,2.91,-1.69,2.06,3.94
10.644,2.98,-1.67,1.10,3.59
10.654,3.37,-1.95,0.90,3.99
10.664,3.71,-2.04,1.07,4.36
10.674,3.78,-2.80,0.33,4.72
10.684,3.23,-3.85,-0.43,5.04
10.694,2.29,-4.52,-0.50,5.09
10.704,0.91,-5.19,-0.66,5.31
10.714,-0.52,-4.95,-0.63,5.02
10.724,-1.48,-3.92,-0.66,4.24
10.734,-1.83,-3.06,-0.91,3.68
10.744,-1.83,-2.55,-0.97,3.29
10.754,-1.74,-2.08,-0.71,2.80
10.764,-1.37,-1.53,-0.14,2.05
10.774,-0.78,-1.20,0.75,1.62
10.784,-0.64,-0.43,1.70,1.87
10.794,-0.77,-0.06,2.10,2.24
10.804,-0.94,0.04,1.63,1.88
10.814,-0.87,0.06,0.88,1.24
10.824,-0.50,0.03,0.19,0.53
10.834,0.10,0.98,-0.71,1.21
10.844,1.14,2.07,-1.80,2.97
10.854,2.48,3.22,-1.92,4.50
10.864,3.40,4.15,-1.56,5.58
10.874,3.21,4.36,-1.41,5.59
10.884,2.09,2.38,-2.17,3.84
10.894,0.84,-0.44,-3.52,3.64
10.904,0.18,-2.21,-3.37,4.04
10.913,0.48,-2.84,-3.13,4.26
10.924,1.03,-1.48,-3.23,3.70
10.934,1.28,0.63,-1.93,2.40
10.944,1.86,3.59,0.57,4.09
10.954,2.35,8.53,3.73,9.60
10.964,1.00,12.64,5.35,13.76
10.975,-1.53,15.03,4.48,15.76
10.984,-4.72,15.39,4.33,16.67
10.994,-7.12,6.58,4.35,10.63
11.004,-7.09,-2.04,4.76,8.77
11.013,-5.86,-5.59,3.92,9.00
11.023,-4.95,-6.34,2.78,8.52
11.033,-4.24,-4.90,1.85,6.74
11.043,-3.08,-3.01,0.64,4.35
11.053,-1.71,-1.68,-0.56,2.46
11.064,-0.40,-0.51,-1.07,1.25
11.073,0.32,-0.13,-0.92,0.98
11.084,0.47,0.23,-0.60,0.80
11.093,0.51,-0.36,-0.95,1.14
11.103,0.51,-1.09,-1.06,1.60
11.113,0.53,-1.37,-0.96,1.75
11.123,0.44,-1.56,-0.96,1.89
11.133,0.25,-2.09,-1.33,2.49
11.143,0.17,-2.74,-1.72,3.24
11.153,0.10,-2.93,-1.73,3.40
11.163,0.16,-2.18,-1.20,2.49
11.173,-0.27,-1.46,-0.31,1.52
11.183,-0.57,-1.14,-0.38,1.32
11.193,-0.98,-1.71,-0.37,2.01
11.203,-1.57,-2.00,0.09,2.54
11.213,-1.96,-1.40,0.05,2.41
11.223,-2.71,-1.43,-0.62,3.12
11.233,-3.39,-1.38,-1.05,3.81
11.243,-3.52,-0.65,-1.27,3.80
11.253,-2.83,0.44,-1.72,3.34
11.263,-1.68,1.10,-1.98,2.82
11.273,-0.77,0.75,-1.76,2.06
11.283,0.07,-0.06,-1.56,1.57
11.293,1.04,-0.86,-1.65,2.14
11.303,1.84,-1.63,-1.99,3.17
11.313,2.17,-2.01,-2.67,3.98
11.323,2.10,-2.23,-3.61,4.73
11.333,2.20,-2.08,-4.33,5.29
11.343,2.66,-1.78,-4.82,5.78
11.353,3.31,-1.30,-4.91,6.06
11.363,3.85,-0.10,-4.47,5.90
11.373,3.96,1.44,-3.52,5.49
11.383,3.61,2.65,-2.45,5.11
11.393,2.93,3.24,-1.54,4.63
11.403,2.29,3.53,-0.97,4.32
11.413,1.95,3.40,-0.85,4.01
11.423,1.70,2.39,-1.08,3.13
11.433,1.36,0.75,-1.63,2.25
11.443,1.31,-0.64,-1.74,2.27
11.453,1.18,-1.68,-1.19,2.37
11.463,0.83,-2.08,-0.69,2.34
11.473,0.43,-1.94,-0.39,2.03
11.483,0.10,-1.69,-0.13,1.70
11.493,-0.26,-1.03,0.85,1.36
11.503,-0.89,0.08,2.27,2.43
11.513,-1.29,1.18,3.14,3.59
11.523,-2.06,2.24,3.98,5.01
11.533,-2.88,3.51,4.22,6.20
11.543,-3.31,4.50,4.09,6.93
11.553,-4.01,5.31,3.76,7.64
11.563,-4.93,6.45,3.03,8.66
11.573,-4.66,7.11,2.93,8.99
11.583,-2.62,5.83,3.41,7.25
11.593,-0.55,3.85,3.87,5.49
11.603,0.59,1.28,3.74,4.00
11.613,0.98,-0.62,2.88,3.10
11.623,1.23,-1.16,2.25,2.81
11.633,1.49,-0.75,2.25,2.81
11.642,2.59,-0.26,1.81,3.17
11.653,3.24,-1.12,1.42,3.71
11.663,3.87,-0.79,1.01,4.07
11.673,4.55,-0.48,0.29,4.58
11.683,4.64,-1.22,-0.34,4.81
11.693,4.03,-3.03,-1.10,5.16
11.703,2.88,-4.59,-1.27,5.56
11.713,1.46,-5.32,-0.89,5.59
11.723,-0.01,-4.54,-0.82,4.61
11.733,-0.92,-2.92,-0.99,3.22
11.743,-1.16,-2.07,-1.21,2.67
11.752,-1.29,-2.02,-1.12,2.64
11.763,-1.03,-1.90,-0.58,2.24
11.773,-0.62,-1.86,0.34,1.99
11.783,-0.42,-1.39,1.28,1.94
11.793,-0.52,-0.91,1.78,2.07
11.802,-0.92,-1.09,1.82,2.31
11.812,-1.12,-1.72,1.50,2.54
11.822,-0.67,-2.40,1.06,2.70
11.832,-0.50,-1.91,0.50,2.04
11.842,-0.32,-0.60,-0.67,0.96
11.852,0.28,1.17,-1.17,1.68
11.862,1.16,3.79,-1.22,4.15
11.872,2.18,5.47,-1.66,6.11
11.882,2.14,4.62,-2.01,5.47
11.892,1.09,2.20,-2.55,3.54
11.902,-0.11,-0.17,-2.85,2.86
11.912,-0.52,-1.31,-2.25,2.66
11.922,-0.25,-1.28,-2.45,2.77
11.932,0.30,-0.69,-2.86,2.96
11.942,0.58,0.68,-1.83,2.04
11.952,0.85,3.01,0.19,3.14
11.962,0.83,7.19,2.50,7.66
11.972,-0.77,10.54,3.63,11.17
11.984,-3.01,13.76,3.62,14.55
11.992,-6.04,15.93,4.74,17.68
12.002,-7.61,10.33,5.65,14.01
12.012,-6.36,0.25,5.90,8.69
12.022,-4.93,-5.14,4.51,8.44
12.032,-4.44,-6.86,2.96,8.68
12.042,-3.87,-5.41,1.72,6.87
12.052,-2.57,-3.24,0.38,4.15
12.062,-0.95,-1.87,-0.60,2.18
12.072,0.46,-0.71,-0.94,1.26
12.082,0.98,-0.75,-0.75,1.44
12.092,0.59,-0.37,-0.13,0.71
12.102,0.07,-0.28,-0.10,0.30
12.112,-0.07,-1.07,-0.54,1.20
12.122,0.08,-1.54,-0.78,1.73
12.132,0.02,-1.97,-1.32,2.37
12.142,-0.16,-2.28,-1.83,2.93
12.152,-0.29,-2.27,-2.17,3.15
12.162,-0.30,-2.48,-2.31,3.40
12.172,-0.48,-2.75,-2.09,3.49
12.182,-0.78,-2.40,-1.46,2.91
12.192,-1.17,-1.56,-0.34,1.98
12.202,-1.30,-1.18,0.02,1.76
12.212,-1.52,-1.33,-0.03,2.02
12.222,-1.62,-1.27,-0.14,2.06
12.232,-1.83,-1.15,-0.50,2.22
12.242,-2.34,-0.90,-1.03,2.71
12.252,-2.69,-0.39,-1.33,3.02
12.262,-2.53,0.24,-1.61,3.01
12.272,-1.58,1.04,-1.70,2.54
12.282,-0.29,1.36,-1.58,2.10
12.292,0.80,1.03,-1.36,1.89
12.302,1.71,0.32,-1.26,2.14
12.312,2.49,-0.68,-1.24,2.86
12.322,2.92,-1.88,-1.41,3.75
12.332,2.94,-2.60,-1.97,4.39
12.342,2.49,-2.63,-2.87,4.62
12.352,2.18,-2.59,-3.88,5.15
12.362,2.50,-2.64,-5.05,6.22
12.372,3.12,-2.17,-5.81,6.94
12.382,3.47,-1.04,-5.41,6.51
12.392,3.45,0.64,-4.00,5.32
12.402,3.33,2.50,-2.57,4.89
12.411,3.46,3.58,-1.68,5.25
12.422,3.71,3.57,-1.17,5.28
12.431,3.93,3.17,-0.95,5.13
12.442,3.91,2.83,-0.83,4.90
12.451,3.88,2.42,-0.92,4.66
12.461,3.72,1.60,-0.89,4.15
12.471,3.17,0.65,-0.57,3.29
12.481,2.64,0.40,-0.04,2.67
12.491,2.09,0.59,0.58,2.25
12.501,1.17,1.16,1.24,2.06
12.512,-0.26,1.80,2.02,2.71
12.521,-1.82,1.69,2.57,3.57
12.531,-3.17,1.19,2.61,4.28
12.541,-4.68,1.37,2.96,5.70
12.551,-5.96,2.02,2.83,6.90
12.561,-6.83,2.83,2.55,7.82
12.571,-7.21,3.46,2.38,8.34
12.581,-7.39,4.11,2.07,8.70
12.591,-6.59,3.88,2.05,7.91
12.601,-4.78,2.61,2.86,6.15
12.611,-2.83,1.90,3.75,5.06
12.621,-0.97,0.87,4.39,4.58
12.631,0.63,-0.62,4.41,4.49
12.641,1.82,-1.47,3.63,4.32
12.651,2.73,-1.55,2.71,4.15
12.661,3.76,-0.75,2.07,4.36
12.671,5.29,-0.53,1.00,5.41
12.681,5.80,-1.34,0.75,6.00
12.691,5.93,-1.86,0.58,6.24
12.701,5.83,-2.65,-0.01,6.40
12.711,4.76,-4.04,-0.68,6.28
12.721,3.50,-4.86,-0.83,6.04
12.731,1.98,-5.68,-1.06,6.11
12.741,0.55,-5.07,-1.05,5.21
12.751,-0.61,-3.71,-0.86,3.85
12.761,-1.57,-2.92,-1.05,3.48
12.771,-1.86,-2.02,-1.39,3.08
12.781,-1.67,-1.71,-1.38,2.76
12.791,-1.39,-1.17,-0.86,2.01
12.801,-0.95,-0.65,-0.11,1.16
12.811,-0.55,-0.51,0.87,1.15
12.821,-0.65,-0.50,1.75,1.93
12.831,-0.92,-0.32,1.84,2.08
12.841,-0.88,-0.46,1.30,1.64
12.851,-0.42,-0.88,0.85,1.30
12.861,0.31,-0.60,0.46,0.82
12.871,1.33,0.42,-0.35,1.44
12.881,2.24,2.42,-1.27,3.53
12.891,3.42,4.72,-1.90,6.13
12.901,4.25,6.20,-1.31,7.63
12.911,3.87,5.69,-0.60,6.91
12.921,2.52,2.64,-1.72,4.03
12.931,0.51,-0.09,-2.97,3.01
12.941,-0.94,-2.11,-3.15,3.90
12.951,-1.78,-2.84,-3.31,4.71
12.961,-2.08,-1.78,-2.84,3.94
12.971,-1.99,0.47,-0.95,2.25
12.981,-1.24,3.26,1.78,3.92
12.991,-0.53,7.90,4.94,9.33
13.001,-1.35,12.31,4.94,13.34
13.012,-2.87,15.45,2.68,15.94
13.021,-5.93,16.03,3.98,17.55
13.031,-8.13,6.89,5.39,11.95
13.040,-7.14,-2.66,5.57,9.44
13.050,-5.42,-5.98,4.53,9.26
13.060,-4.29,-6.60,2.77,8.34
13.070,-3.42,-5.32,1.52,6.50
13.081,-2.52,-3.05,0.41,3.98
13.090,-1.23,-1.40,-0.96,2.10
13.100,0.41,-0.46,-1.73,1.84
13.110,1.18,-0.65,-1.42,1.96
13.120,0.87,-1.37,-0.84,1.83
13.131,0.35,-1.12,-0.44,1.26
13.140,0.34,-0.92,-0.39,1.05
13.150,0.67,-1.18,-0.59,1.48
13.161,0.77,-1.82,-0.99,2.21
13.170,0.88,-1.98,-1.33,2.54
13.180,0.62,-1.91,-1.51,2.51
13.190,0.17,-1.90,-1.53,2.44
13.201,-0.10,-1.71,-1.36,2.19
13.210,-0.26,-1.32,-0.93,1.64
13.221,-0.49,-1.08,-0.74,1.39
13.230,-0.64,-1.30,-0.52,1.54
13.240,-0.82,-1.46,-0.39,1.72
13.250,-1.40,-1.82,-0.69,2.40
13.260,-2.13,-1.71,-1.06,2.93
13.270,-2.84,-1.40,-1.23,3.39
13.280,-3.02,-0.73,-1.63,3.51
13.290,-2.57,0.15,-2.04,3.28
13.300,-1.88,0.73,-2.24,3.02
13.310,-1.37,0.74,-2.20,2.69
13.320,-0.85,0.33,-1.96,2.17
13.330,-0.22,-0.32,-1.59,1.64
13.340,0.34,-1.07,-1.27,1.70
13.350,0.62,-1.63,-1.24,2.14
13.360,0.62,-1.81,-1.68,2.55
13.370,0.64,-2.05,-2.73,3.47
13.380,0.88,-2.53,-4.14,4.93
13.390,1.66,-2.82,-5.56,6.45
13.400,2.88,-1.91,-6.12,7.03
13.410,4.20,0.33,-5.60,7.01
13.420,5.43,2.61,-4.35,7.42
13.430,6.18,3.56,-2.98,7.73
13.440,6.18,3.35,-1.99,7.31
13.450,5.83,2.97,-1.79,6.78
13.460,5.18,2.74,-1.57,6.07
13.470,4.53,2.14,-1.06,5.12
13.480,3.89,1.25,-0.40,4.10
13.490,3.35,0.83,0.37,3.47
13.500,2.97,1.17,1.18,3.40
13.510,2.23,1.80,1.69,3.32
13.520,0.72,1.99,1.98,2.90
13.530,-0.84,1.91,2.36,3.15
13.540,-2.21,1.24,2.36,3.46
13.550,-3.61,0.65,2.81,4.62
13.560,-4.97,0.56,3.08,5.87
13.570,-5.91,1.13,2.77,6.63
13.580,-6.52,2.81,2.10,7.40
13.590,-6.56,4.56,1.23,8.09
13.600,-5.51,5.07,0.89,7.54
13.609,-3.76,4.89,1.42,6.33
13.620,-1.74,3.95,2.59,5.03
13.630,-0.08,2.26,3.84,4.46
13.639,1.42,0.89,4.39,4.70
13.649,2.88,0.29,3.91,4.87
13.659,3.56,-0.54,3.24,4.84
13.670,3.89,-1.60,2.89,5.11
13.680,3.93,-2.15,2.60,5.18
13.690,3.63,-1.91,2.08,4.60
13.700,3.39,-2.10,1.64,4.32
13.709,3.51,-2.25,1.13,4.32
13.720,3.42,-3.43,-0.05,4.84
13.730,2.88,-4.65,-0.87,5.53
13.739,1.77,-5.03,-0.78,5.39
13.750,0.44,-4.78,-1.15,4.94
13.759,-0.80,-3.87,-1.52,4.24
13.770,-2.03,-2.91,-1.57,3.88
13.780,-2.40,-1.80,-1.68,3.44
13.790,-2.41,-1.26,-1.92,3.33
13.800,-2.36,-0.97,-1.71,3.07
13.810,-2.30,-0.69,-0.97,2.59
13.820,-1.94,-0.98,-0.05,2.17
13.829,-1.95,-1.37,0.95,2.56
13.839,-2.13,-1.41,1.38,2.91
13.849,-1.80,-1.17,1.08,2.40
13.859,-1.37,-1.26,0.75,2.00
13.869,-1.02,-1.63,0.60,2.01
13.879,-0.81,-1.57,0.42,1.82
13.889,-0.68,-0.65,-0.04,0.94
13.899,-0.11,1.07,-0.62,1.25
13.909,0.99,3.20,-1.01,3.50
13.919,2.42,5.27,-1.27,5.94
13.929,3.20,6.61,-0.47,7.36
13.939,3.04,5.80,-0.61,6.58
13.949,2.13,2.76,-2.25,4.15
13.959,0.82,-0.10,-2.79,2.91
13.969,-0.86,-1.34,-2.04,2.59
13.979,-2.31,-0.07,-1.47,2.73
13.989,-2.80,2.22,-0.75,3.65
13.999,-2.26,5.92,1.17,6.44
14.009,-1.36,11.28,2.91,11.73
14.020,-1.66,13.63,2.01,13.88
14.029,-2.97,11.15,1.81,11.68
14.039,-4.52,5.46,2.70,7.58
14.049,-4.86,-0.05,3.39,5.92
14.059,-4.02,-3.27,4.08,6.59
14.069,-2.68,-4.53,3.96,6.59
14.079,-1.28,-4.76,2.81,5.67
14.089,-0.13,-3.55,1.57,3.88
14.099,0.73,-1.43,0.43,1.66
14.109,1.25,-0.21,-0.88,1.54
14.119,1.27,-0.36,-1.71,2.16
14.129,0.54,-1.13,-1.60,2.04
14.139,-0.77,-1.88,-1.16,2.34
14.149,-1.78,-1.83,-0.55,2.61
14.159,-1.80,-1.29,-0.01,2.22
14.169,-1.23,-0.90,0.05,1.53
14.179,-1.00,-0.92,0.18,1.37
14.189,-1.34,-1.51,-0.20,2.03
14.199,-1.51,-1.99,-1.21,2.78
14.209,-1.54,-2.12,-1.55,3.05
14.219,-1.21,-2.01,-1.42,2.74
14.229,-0.64,-1.97,-1.26,2.42
14.239,-0.01,-2.10,-1.29,2.47
14.249,0.66,-2.48,-1.46,2.95
14.259,1.11,-3.02,-1.27,3.46
14.269,1.33,-3.09,-1.25,3.59
14.279,0.97,-2.76,-1.19,3.16
14.289,-0.12,-2.10,-1.05,2.35
14.298,-1.35,-1.33,-0.93,2.11
14.308,-2.18,-0.38,-1.06,2.46
14.319,-2.35,0.88,-1.11,2.74
14.329,-1.78,1.77,-1.08,2.73
14.339,-0.97,1.98,-1.22,2.52
14.349,0.00,1.80,-1.16,2.14
14.359,0.98,1.16,-0.95,1.79
14.369,1.79,0.48,-0.98,2.09
14.379,2.11,-0.08,-1.22,2.44
14.389,1.91,-0.62,-1.81,2.70
14.398,1.66,-1.06,-2.87,3.48
14.409,1.72,-1.36,-4.11,4.66
14.418,1.98,-1.33,-5.09,5.63
14.429,2.37,-0.64,-5.42,5.95
14.438,2.84,0.66,-4.85,5.66
14.448,3.38,2.10,-3.89,5.56
14.458,3.91,2.92,-3.07,5.76
14.468,4.34,2.86,-2.57,5.80
14.478,4.56,2.42,-2.14,5.59
14.488,4.57,1.90,-1.70,5.23
14.498,4.18,1.35,-1.56,4.67
14.508,3.84,0.23,-1.73,4.22
14.518,3.56,-1.42,-1.57,4.14
14.529,3.22,-2.38,-0.89,4.10
14.538,2.36,-2.61,-0.02,3.52
14.548,1.13,-2.02,0.39,2.35
14.558,-0.41,-0.70,1.07,1.34
14.568,-2.56,0.61,2.68,3.76
14.578,-4.22,1.03,2.78,5.16
14.588,-5.75,2.12,2.88,6.77
14.598,-7.61,4.34,3.30,9.36
14.608,-8.31,6.28,3.01,10.84
14.618,-7.72,6.88,3.07,10.79
14.628,-6.07,6.01,3.46,9.22
14.638,-4.79,5.28,3.87,8.11
14.648,-3.62,4.70,4.82,7.65
14.658,-2.35,3.50,5.54,6.96
14.668,-0.71,2.66,5.70,6.33
14.678,1.04,1.74,4.90,5.30
14.688,2.24,0.55,3.51,4.20
14.698,2.96,-0.31,2.50,3.89
14.708,3.55,-0.75,1.71,4.01
14.718,3.77,-0.89,0.90,3.98
14.728,3.50,-1.45,0.35,3.80
14.738,3.32,-1.87,-0.02,3.81
14.748,3.27,-2.34,0.68,4.08
14.758,3.16,-3.56,0.84,4.83
14.768,3.02,-4.90,-0.00,5.76
14.778,2.21,-5.58,-0.22,6.01
14.788,1.07,-5.71,-0.27,5.82
14.798,-0.08,-5.01,-0.50,5.04
14.808,-0.79,-4.02,-0.46,4.13
14.818,-1.23,-3.21,-0.72,3.51
14.828,-1.89,-2.86,-0.95,3.56
14.838,-2.37,-2.38,-0.89,3.47
14.848,-2.41,-2.10,-0.64,3.26
14.858,-2.19,-1.95,0.05,2.93
14.868,-1.85,-1.74,0.82,2.67
14.878,-1.55,-1.63,1.21,2.56
14.888,-1.45,-1.59,0.92,2.34
14.898,-1.38,-1.72,0.43,2.25
14.908,-1.08,-1.78,-0.20,2.09
14.918,-0.71,-1.00,-0.80,1.47
14.928,-0.04,1.18,-1.58,1.97
14.938,1.63,3.30,-2.74,4.59
14.948,3.79,5.45,-2.61,7.13
14.958,5.33,6.75,-1.29,8.70
14.967,5.62,5.82,-0.44,8.11
14.978,4.81,3.09,-1.72,5.97
14.988,3.08,0.33,-3.40,4.60
14.998,1.49,-1.07,-2.91,3.44
15.008,0.42,-1.16,-2.87,3.13
15.017,-0.33,0.37,-2.17,2.22
15.027,-0.53,3.60,0.10,3.64
15.038,-0.06,8.89,3.24,9.46
15.047,-0.60,13.65,4.34,14.33
15.059,-2.49,15.23,3.54,15.84
15.068,-5.30,12.14,2.84,13.55
15.078,-6.97,3.76,2.83,8.41
15.087,-7.10,-2.78,4.38,8.80
15.098,-5.33,-5.64,4.59,9.02
15.107,-3.08,-6.39,3.53,7.92
15.117,-1.45,-5.19,2.40,5.90
15.128,-0.50,-2.52,1.43,2.94
15.138,0.35,-0.67,0.07,0.76
15.147,0.91,0.02,-1.02,1.37
15.157,0.43,-0.10,-1.11,1.19
15.167,-0.78,-0.77,-1.01,1.49
15.177,-1.40,-1.21,-1.10,2.15
15.187,-0.89,-0.41,-0.83,1.28
15.197,-0.01,0.38,-0.52,0.65
15.207,0.34,0.45,-0.21,0.60
15.217,0.06,-0.16,-0.44,0.47
15.227,-0.21,-0.69,-1.37,1.55
15.237,-0.53,-1.07,-1.68,2.06
15.247,-0.78,-1.52,-1.49,2.26
15.257,-1.02,-1.99,-1.12,2.50
15.267,-1.32,-2.36,-0.80,2.82
15.277,-1.35,-2.86,-0.74,3.25
15.287,-1.34,-3.50,-0.47,3.78
15.297,-1.37,-3.57,-0.34,3.84
15.307,-1.47,-2.90,-0.31,3.26
15.317,-1.89,-2.02,-0.12,2.77
15.327,-2.35,-1.17,0.10,2.63
15.337,-2.89,-0.56,-0.29,2.96
15.347,-2.90,0.26,-1.12,3.12
15.357,-2.14,1.04,-1.51,2.82
15.367,-1.09,1.12,-1.68,2.29
15.377,0.08,0.48,-1.79,1.85
15.387,1.16,-0.49,-1.87,2.26
15.397,2.01,-1.27,-1.99,3.10
15.407,2.27,-1.46,-2.14,3.45
15.417,1.97,-1.28,-2.49,3.42
15.427,1.75,-1.38,-2.95,3.70
15.437,1.94,-1.56,-3.50,4.29
15.447,2.49,-1.76,-4.24,5.22
15.457,3.29,-1.84,-4.88,6.16
15.467,3.94,-1.23,-4.80,6.33
15.477,4.19,0.03,-3.73,5.61
15.487,4.18,1.23,-2.40,4.97
15.497,3.85,1.93,-1.61,4.60
15.507,3.27,2.07,-1.29,4.07
15.517,2.60,1.79,-0.95,3.30
15.527,2.28,1.53,-0.95,2.90
15.537,2.33,1.21,-1.56,3.05
15.547,2.39,0.68,-2.02,3.20
15.557,2.25,0.14,-1.78,2.87
15.567,1.86,-0.24,-0.99,2.12
15.577,1.30,-0.11,-0.17,1.31
15.587,0.34,0.98,1.04,1.47
15.597,-1.44,1.66,2.70,3.48
15.607,-3.08,1.61,2.93,4.54
15.617,-4.84,2.41,3.60,6.50
15.627,-6.86,4.40,4.03,9.09
15.637,-7.94,6.40,3.55,10.80
15.647,-7.80,7.19,3.02,11.03
15.657,-6.51,6.95,2.50,9.85
15.667,-4.70,6.46,2.56,8.39
15.677,-2.71,5.11,3.55,6.78
15.687,-0.96,3.64,4.61,5.95
15.697,0.18,2.27,5.33,5.80
15.707,1.42,1.58,5.11,5.53
15.717,2.40,0.73,4.06,4.77
15.726,3.03,-0.02,3.40,4.55
15.736,3.73,-0.73,2.63,4.63
15.746,4.10,-1.22,1.78,4.63
15.757,4.18,-1.88,1.26,4.75
15.767,3.97,-2.75,0.65,4.87
15.777,3.73,-3.75,-0.14,5.29
15.786,3.67,-4.85,-1.12,6.18
15.797,3.31,-5.42,-1.51,6.53
15.807,2.22,-6.13,-1.19,6.63
15.817,0.91,-6.73,-1.08,6.87
15.826,-0.30,-5.85,-0.86,5.93
15.836,-0.95,-4.31,-0.63,4.46
15.846,-1.19,-3.02,-0.62,3.31
15.856,-1.62,-2.18,-0.52,2.76
15.866,-1.64,-0.71,-0.37,1.82
15.876,-1.48,-0.01,0.05,1.48
15.886,-1.17,0.07,0.76,1.40
15.896,-0.98,-0.17,1.42,1.73
15.906,-1.03,-0.72,1.23,1.77
15.916,-0.89,-0.69,0.55,1.25
15.926,-0.40,-0.65,0.14,0.78
15.936,0.22,-1.01,0.07,1.03
15.946,0.87,-1.11,0.01,1.42
15.956,1.33,-0.52,-0.24,1.45
15.966,1.78,0.46,-1.32,2.26
15.976,2.65,2.14,-2.09,3.99
15.986,4.05,3.54,-2.26,5.83
15.996,4.20,3.70,-2.25,6.04
16.006,2.77,3.16,-2.49,4.89
16.016,1.17,0.97,-3.16,3.50
16.026,0.01,-1.00,-2.87,3.04
16.036,-0.60,-1.83,-2.15,2.89
16.046,-1.50,0.23,-0.90,1.77
16.056,-2.77,3.89,0.18,4.78
16.066,-2.98,9.79,2.41,10.51
16.077,-1.36,17.17,4.01,17.69
16.087,-0.11,17.62,3.35,17.94
16.096,-1.49,9.40,3.51,10.15
16.106,-4.22,1.83,3.63,5.86
16.116,-4.94,-2.76,3.82,6.83
16.126,-3.79,-4.88,3.89,7.30
16.136,-1.62,-4.84,3.23,6.04
16.146,0.06,-3.38,2.05,3.95
16.156,1.26,-1.57,0.80,2.17
16.166,1.95,-0.49,-0.47,2.07
16.176,1.69,-0.46,-1.16,2.10
16.186,0.40,-0.98,-0.90,1.39
16.196,-1.57,-1.87,-0.36,2.47
16.206,-3.27,-2.51,0.19,4.12
16.216,-3.69,-2.11,0.68,4.30
16.226,-2.79,-1.15,0.75,3.11
16.236,-1.93,-0.51,0.97,2.22
16.246,-2.16,-0.32,0.98,2.40
16.256,-2.41,-0.47,0.18,2.47
16.266,-2.24,-0.77,-0.61,2.45
16.276,-1.61,-0.85,-0.99,2.07
16.285,-0.81,-1.07,-1.02,1.68
16.296,-0.75,-2.24,-0.86,2.51
16.305,-0.47,-2.55,-0.73,2.69
16.316,-0.18,-2.85,-1.25,3.12
16.326,0.19,-2.78,-1.47,3.15
16.336,0.22,-2.54,-1.35,2.88
16.346,-0.21,-2.30,-1.15,2.58
16.356,-0.96,-1.32,-0.79,1.81
16.366,-1.85,0.02,-0.46,1.90
16.376,-2.14,1.05,-0.49,2.44
16.386,-1.84,1.30,-0.86,2.41
16.396,-1.28,1.01,-1.14,1.99
16.406,-0.75,0.48,-1.16,1.46
16.416,-0.30,-0.07,-0.98,1.03
16.426,0.13,-0.28,-1.12,1.16
16.436,0.22,-0.44,-1.32,1.41
16.446,0.09,-0.76,-1.90,2.05
16.455,0.23,-1.19,-3.05,3.28
16.465,0.72,-1.81,-4.49,4.89
16.476,1.68,-2.33,-5.87,6.53
16.485,2.96,-2.11,-6.37,7.33
16.495,4.19,-0.94,-5.56,7.02
16.505,5.12,0.45,-3.86,6.43
16.515,5.81,1.31,-2.18,6.35
16.525,6.03,1.78,-1.04,6.38
16.535,5.24,2.06,-0.18,5.64
16.545,3.78,2.28,0.34,4.43
16.555,2.85,2.02,0.19,3.50
16.565,2.37,1.24,-0.65,2.75
16.575,2.04,0.51,-1.09,2.37
16.585,1.83,-0.20,-0.88,2.04
16.595,1.48,-0.61,-0.28,1.62
16.605,0.80,-0.59,0.34,1.05
16.615,-0.29,-0.21,1.19,1.24
16.625,-2.11,-0.05,2.32,3.14
16.635,-3.67,0.11,2.47,4.43
16.645,-5.42,1.08,2.99,6.28
16.655,-7.07,2.60,3.22,8.20
16.665,-7.85,4.37,2.80,9.41
16.675,-7.40,5.35,2.40,9.44
16.685,-5.62,4.95,2.68,7.95
16.695,-4.17,4.83,3.24,7.16
16.705,-2.41,4.40,4.01,6.42
16.715,-0.82,3.09,4.71,5.69
16.725,0.35,2.12,5.09,5.52
16.735,1.60,1.98,4.63,5.28
16.745,2.72,1.87,3.54,4.84
16.755,3.86,1.77,2.70,5.03
16.765,4.92,1.37,2.04,5.50
16.775,4.99,-0.07,1.35,5.17
16.785,4.30,-2.05,1.07,4.88
16.795,3.86,-2.05,0.40,4.39
16.805,3.57,-2.05,-0.16,4.12
16.815,3.03,-2.77,-0.69,4.17
16.825,2.40,-4.17,-0.89,4.90
16.835,1.56,-4.95,-0.57,5.22
16.845,0.37,-4.70,-0.68,4.77
16.855,-0.45,-3.56,-0.66,3.64
16.865,-0.72,-2.42,-0.50,2.57
16.875,-0.87,-1.72,-0.65,2.03
16.885,-1.22,-1.28,-0.72,1.91
16.895,-1.34,-0.76,-0.61,1.65
16.905,-1.22,-0.88,-0.15,1.51
16.915,-1.13,-1.33,0.53,1.82
16.925,-1.32,-1.56,0.93,2.24
16.935,-1.41,-1.59,0.75,2.25
16.945,-1.12,-1.70,0.45,2.08
16.955,-0.61,-1.84,0.45,1.99
16.965,-0.05,-1.68,0.45,1.74
16.975,0.45,-0.93,0.25,1.07
16.985,1.01,0.45,-0.41,1.18
16.995,2.16,1.90,-1.43,3.21
17.005,3.42,3.94,-1.30,5.38
17.015,3.83,4.66,-1.39,6.19
17.025,2.95,3.74,-2.01,5.18
17.035,1.46,1.45,-3.17,3.77
17.045,0.35,-1.10,-3.67,3.84
17.055,-0.19,-2.76,-3.72,4.64
17.064,-0.15,-2.48,-3.19,4.04
17.075,0.33,-1.89,-2.74,3.34
17.084,0.46,0.00,-1.15,1.24
17.094,1.16,4.16,1.38,4.53
17.104,1.93,9.62,3.21,10.32
17.114,1.45,12.34,3.07,12.80
17.126,-0.55,12.79,3.79,13.35
17.134,-3.87,10.30,4.78,12.00
17.144,-5.88,3.95,5.14,8.75
17.154,-5.75,-1.44,5.85,8.33
17.164,-4.19,-4.48,4.99,7.91
17.175,-2.88,-5.32,3.25,6.87
17.184,-2.10,-3.99,1.64,4.80
17.195,-1.25,-1.81,0.41,2.24
17.204,-0.41,-0.75,-0.48,0.98
17.214,0.03,-0.60,-1.13,1.28
17.224,-0.23,-0.54,-0.83,1.02
17.234,-0.88,0.45,0.04,0.99
17.244,-1.32,0.59,0.27,1.47
17.254,-1.29,-0.32,0.37,1.38
17.264,-1.14,-1.34,0.38,1.80
17.274,-1.63,-2.38,0.08,2.88
17.284,-1.85,-2.57,-0.53,3.21
17.294,-1.74,-2.20,-0.83,2.92
17.304,-1.47,-1.79,-0.80,2.46
17.314,-1.17,-1.51,-0.58,2.00
17.324,-0.81,-1.34,-0.43,1.62
17.334,-0.46,-1.40,-0.75,1.65
17.344,-0.42,-1.69,-0.96,1.99
17.354,-0.67,-1.80,-0.94,2.14
17.364,-1.10,-1.65,-1.15,2.29
17.374,-1.60,-1.44,-1.37,2.55
17.384,-2.11,-0.90,-1.48,2.73
17.394,-2.51,-0.11,-1.42,2.88
17.404,-2.24,1.03,-1.32,2.79
17.414,-1.47,1.67,-1.13,2.50
17.424,-0.68,1.63,-1.10,2.08
17.434,0.11,1.38,-0.95,1.68
17.444,0.83,0.95,-0.59,1.40
17.454,1.39,0.31,-0.32,1.46
17.464,1.78,-0.29,-0.42,1.85
17.474,1.93,-0.65,-0.91,2.23
17.484,1.86,-0.91,-1.71,2.68
17.494,1.77,-1.08,-2.67,3.38
17.504,1.89,-1.17,-3.63,4.25
17.514,2.24,-1.12,-4.44,5.10
17.524,2.58,-0.73,-4.79,5.49
17.534,2.55,0.01,-4.23,4.94
17.544,2.41,0.76,-3.04,3.95
17.554,2.54,1.17,-2.04,3.46
17.564,2.96,1.33,-1.56,3.60
17.574,3.31,1.03,-1.33,3.71
17.584,3.33,0.56,-1.26,3.61
17.594,3.03,0.42,-1.32,3.33
17.604,2.55,0.19,-1.81,3.14
17.614,2.06,-0.37,-2.35,3.14
17.624,1.63,-0.87,-2.10,2.79
17.634,1.18,-1.18,-1.33,2.14
17.644,0.67,-1.33,-0.29,1.51
17.654,0.26,-1.29,0.68,1.48
17.664,-0.20,-0.93,1.42,1.71
17.673,-1.10,-0.63,2.16,2.51
17.684,-2.18,-0.79,2.71,3.57
17.694,-3.20,-0.36,3.60,4.83
17.704,-4.42,0.54,4.32,6.20
17.713,-5.28,1.70,4.35,7.05
17.723,-5.59,3.00,4.15,7.58
17.733,-5.52,3.86,4.45,8.07
17.743,-5.67,4.13,5.07,8.65
17.753,-5.72,4.80,4.63,8.79
17.764,-4.66,5.22,4.00,8.06
17.773,-2.92,4.65,3.84,6.70
17.783,-1.57,2.88,3.78,5.00
17.794,-0.28,1.97,3.46,3.99
17.804,0.96,1.91,2.96,3.65
17.813,2.22,1.78,2.32,3.67
17.823,2.91,1.50,1.74,3.71
17.833,3.46,0.27,1.93,3.97
17.844,3.51,-1.99,2.33,4.66
17.853,3.56,-1.98,1.44,4.32
17.863,3.48,-1.92,0.15,3.98
17.873,2.92,-2.60,-0.67,3.97
17.883,2.01,-3.48,-0.52,4.06
17.893,0.84,-4.13,-0.02,4.22
17.903,-0.26,-3.67,0.09,3.68
17.913,-0.96,-2.66,0.24,2.84
17.923,-1.02,-1.55,0.19,1.87
17.933,-0.74,-0.47,-0.07,0.88
17.943,-0.35,0.29,-0.26,0.52
17.953,0.00,0.63,-0.24,0.67
17.963,0.02,0.56,-0.12,0.57
17.973,-0.24,-0.06,0.01,0.24
17.983,-0.51,-0.69,-0.05,0.85
17.993,-0.69,-0.82,-0.34,1.13
18.003,-0.41,-1.81,-0.27,1.87
18.013,-0.04,-2.90,0.12,2.90
18.023,0.39,-2.79,0.46,2.85
18.033,1.41,-2.55,0.71,3.00
18.043,2.18,-2.11,0.29,3.05
18.053,2.91,-0.89,-0.83,3.16
18.063,3.23,1.56,-1.18,3.78
18.073,3.33,3.03,-0.89,4.59
18.083,3.19,2.45,-1.12,4.18
18.093,2.37,1.19,-2.18,3.43
18.103,1.13,-0.00,-3.01,3.21
18.113,0.21,-1.32,-3.23,3.49
18.123,0.01,-1.87,-2.47,3.10
18.133,-0.09,-1.08,-1.14,1.57
18.143,-0.31,0.57,-0.14,0.67
18.153,-0.20,3.75,1.70,4.13
18.163,0.61,8.03,3.24,8.68
18.173,0.69,8.00,2.15,8.32
18.183,-0.23,6.41,1.48,6.58
18.193,-2.24,6.27,2.43,7.09
18.203,-3.63,4.13,2.68,6.12
18.213,-3.46,1.07,3.81,5.26
18.223,-2.56,-0.98,4.38,5.17
18.233,-1.61,-1.28,3.94,4.45
18.243,-1.66,-0.99,3.27,3.80
18.253,-2.10,-0.54,2.19,3.09
18.263,-2.20,-0.20,1.05,2.44
18.273,-2.15,-0.30,0.57,2.25
18.283,-2.05,-0.57,0.41,2.17
18.293,-2.10,-0.23,0.04,2.11
18.303,-1.65,0.85,-0.00,1.86
18.313,-0.99,0.88,-0.10,1.33
18.323,-0.79,0.23,-0.20,0.85
18.333,-1.08,-0.38,-0.51,1.25
18.343,-1.48,-1.05,-0.96,2.05
18.353,-1.31,-0.74,-1.01,1.81
18.363,-0.92,-0.39,-0.70,1.21
18.372,-0.39,-0.73,-0.72,1.10
18.383,-0.04,-1.39,-0.64,1.53
18.393,-0.16,-2.06,-0.47,2.12
18.403,-0.35,-2.43,-0.58,2.52
18.412,-0.36,-2.64,-0.66,2.75
18.423,0.09,-1.95,-0.08,1.95
18.433,0.32,-0.72,0.47,0.92
18.443,0.16,0.65,0.31,0.73
18.453,-0.10,1.57,-0.10,1.58
18.463,-0.77,1.88,-0.42,2.07
18.473,-1.30,1.60,-0.60,2.14
18.483,-1.10,0.88,-0.57,1.52
18.493,-0.25,-0.32,-0.46,0.61
18.503,0.06,-1.14,-0.29,1.18
18.513,-0.26,-1.39,-0.33,1.45
18.523,-0.71,-1.40,-0.47,1.64
18.533,-1.05,-1.43,-0.75,1.92
18.542,-0.97,-1.61,-1.04,2.15
18.552,-0.73,-1.58,-1.42,2.25
18.562,-0.68,-1.54,-1.82,2.48
18.572,-0.74,-1.72,-2.15,2.85
18.582,-0.76,-1.89,-2.28,3.06
18.592,-0.72,-1.78,-2.19,2.92
18.602,-0.67,-1.34,-1.97,2.48
18.612,-0.50,-0.54,-1.70,1.85
18.622,-0.10,0.23,-1.29,1.32
18.632,0.75,1.17,-0.73,1.57
18.642,1.59,2.24,-0.39,2.77
18.652,1.93,2.56,-0.32,3.22
18.662,1.92,2.17,-0.57,2.96
18.672,1.64,1.73,-0.67,2.48
18.682,1.21,0.75,-0.34,1.46
18.692,0.90,-0.70,-0.33,1.19
18.702,0.74,-1.38,-0.74,1.73
18.712,0.55,-0.62,-0.81,1.16
18.722,0.57,0.26,-0.86,1.06
18.732,-0.54,-1.26,0.33,1.41
18.742,-1.26,-0.89,1.97,2.51
18.752,-1.77,-0.63,1.66,2.51
18.762,-1.92,-1.54,1.91,3.12
18.772,-1.72,-2.15,2.38,3.64
18.782,-1.34,-2.38,2.72,3.85
18.792,-0.87,-2.16,2.62,3.51
18.802,-0.46,-1.47,2.19,2.68
18.812,-0.09,0.05,1.98,1.98
18.822,0.35,2.25,2.47,3.36
18.832,0.52,4.15,2.92,5.10
18.842,0.68,5.45,3.34,6.43
18.852,0.96,6.42,3.70,7.47
18.862,1.78,7.24,3.41,8.19
18.872,2.80,6.82,3.16,8.02
18.882,2.48,4.30,3.60,6.13
18.892,0.86,1.75,4.53,4.93
18.902,1.28,0.28,3.08,3.35
18.912,0.99,0.43,1.03,1.49
18.922,0.52,-0.01,0.41,0.66
18.932,0.34,0.13,0.30,0.47
18.942,0.16,-0.22,-0.17,0.32
18.952,-0.39,-0.21,-0.47,0.65
18.962,-0.94,-0.71,-0.42,1.25
18.972,-1.00,-1.50,0.23,1.81
18.982,-1.22,-1.39,1.04,2.12
18.992,-1.48,-1.25,1.46,2.42
19.002,-1.35,-0.95,1.86,2.49
19.012,-1.17,-0.45,1.67,2.08
19.021,-1.23,0.28,1.92,2.30
19.032,-0.68,-0.06,1.46,1.61
19.041,-0.45,-0.35,1.20,1.33
19.052,-0.30,-0.62,1.10,1.30
19.061,-0.22,-0.59,0.99,1.18
19.072,-0.34,-0.49,0.74,0.95
19.082,-0.56,-0.66,0.48,0.99
19.092,-0.71,-1.14,0.11,1.35
19.102,-0.96,-1.29,-0.15,1.61
19.112,-1.19,-1.16,-0.24,1.68
19.122,-1.41,-0.81,-0.12,1.63
19.132,-1.18,-0.40,0.37,1.30
19.142,-0.60,0.54,0.03,0.81
19.151,-0.37,2.43,0.05,2.46
19.162,0.02,3.66,0.30,3.67
19.172,-0.03,4.31,0.92,4.41
19.182,-0.05,4.05,1.61,4.36
19.191,0.19,3.29,1.08,3.46
19.202,-0.23,3.27,0.80,3.37
19.211,-0.48,3.17,0.76,3.29
19.221,-0.49,3.29,0.97,3.46
19.231,-0.12,2.77,1.09,2.98
19.241,0.36,1.44,1.07,1.83
19.251,0.55,1.45,1.49,2.15
19.261,0.58,1.73,2.02,2.72
19.271,0.89,0.98,1.82,2.25
19.281,0.36,1.28,0.95,1.64
19.291,-0.04,1.58,1.86,2.45
19.301,-0.22,1.11,0.09,1.14
19.311,-0.69,1.45,-0.45,1.66
19.321,-0.52,1.64,-0.12,1.73
19.331,-0.51,1.94,0.13,2.00
19.341,-0.49,1.92,0.28,2.01
19.351,-0.64,1.75,-0.06,1.87
19.361,-0.77,2.02,-0.57,2.23
19.371,-0.68,2.52,-1.16,2.85
19.381,-0.38,2.17,-1.47,2.65
19.391,0.16,2.21,-0.64,2.31
19.401,0.90,2.59,0.29,2.75
19.411,0.99,3.44,-0.18,3.58
19.421,0.78,4.15,-0.94,4.32
19.431,0.13,3.91,-0.87,4.01
19.441,0.17,2.59,0.16,2.60
19.451,1.11,1.22,0.88,1.87
19.461,2.53,-0.25,2.47,3.55
19.471,2.31,-0.55,0.35,2.40
19.481,2.87,0.33,-2.81,4.03
19.491,4.47,0.55,-1.94,4.90
19.501,3.87,0.22,-3.05,4.93
19.511,3.16,-0.42,-4.13,5.21
19.521,2.66,-0.76,-3.96,4.83
19.531,1.98,-0.25,-3.94,4.41
19.541,1.54,0.43,-4.17,4.47
19.551,1.53,0.86,-3.77,4.16
19.561,1.34,1.47,-3.39,3.93
19.571,1.06,1.83,-2.72,3.44
19.581,0.55,2.10,-2.41,3.24
19.591,-0.53,2.31,-2.98,3.81
19.601,-1.76,1.93,-3.55,4.40
19.611,-3.05,1.47,-3.57,4.92
19.621,-3.90,0.95,-3.64,5.42
19.631,-4.22,0.31,-3.73,5.64
19.641,-4.06,-0.35,-3.61,5.45
19.651,-3.92,-0.28,-2.91,4.89
19.661,-3.93,0.13,-2.27,4.54
19.671,-3.93,0.27,-2.36,4.60
19.681,-3.92,0.09,-2.35,4.57
19.691,-4.08,-0.03,-2.36,4.71
19.701,-4.38,-0.03,-2.68,5.13
19.711,-4.42,-0.77,-2.14,4.97
19.721,-4.27,-1.76,-1.46,4.84
19.731,-3.86,-2.60,-0.80,4.72
19.741,-3.41,-3.00,-0.07,4.54
19.751,-2.97,-3.14,0.23,4.33
19.760,-2.87,-2.40,0.16,3.74
19.771,-2.72,-1.59,0.10,3.15
19.780,-2.55,-1.49,-0.19,2.96
19.791,-2.66,-1.42,-0.03,3.02
19.801,-2.88,-1.68,0.64,3.40
19.811,-2.99,-2.30,1.34,4.00
19.820,-2.66,-3.09,4.18,5.84
19.831,-1.63,-3.35,7.21,8.11
19.840,0.04,-3.11,1.18,3.33
19.850,0.25,-2.95,3.81,4.82
19.861,-0.52,-2.81,8.41,8.88
19.870,-0.74,-2.67,10.69,11.04
19.880,0.71,-1.57,4.62,4.93
19.890,1.48,-0.19,-0.23,1.51
19.900,1.14,-0.06,2.78,3.00
19.910,2.03,-1.74,3.55,4.45
19.920,3.58,-3.02,2.11,5.13
19.930,3.64,-3.45,1.68,5.29
19.940,-2.73,-4.34,-0.01,5.13
19.950,-4.44,-4.09,-2.54,6.55
19.960,-3.83,-1.73,-3.89,5.72
19.970,-3.86,0.50,0.31,3.90
19.980,-2.79,1.20,2.70,4.07
19.990,-2.40,0.44,2.45,3.46
20.000,-2.40,-0.71,2.75,3.72
20.010,-2.50,0.62,2.13,3.34
20.020,-2.37,1.17,2.95,3.96
20.030,-2.56,0.68,3.27,4.21
20.040,-3.05,0.38,2.04,3.69
20.050,-3.08,0.71,1.35,3.44
20.060,-3.17,1.49,0.57,3.55
20.070,-3.49,1.88,-0.29,3.98
20.080,-3.81,2.01,-1.12,4.45
20.090,-3.55,2.11,-1.64,4.44
20.100,-2.84,2.00,-1.73,3.88
20.110,-2.21,1.73,-2.00,3.44
20.120,-1.58,1.89,-2.49,3.50
20.130,-0.88,2.09,-2.42,3.31
20.140,-0.29,1.63,-2.34,2.87
20.150,0.01,1.05,-2.26,2.49
20.160,0.33,0.66,-2.22,2.34
20.170,0.76,0.28,-2.47,2.60
20.180,0.83,-0.06,-1.22,1.48
20.190,0.12,-0.63,-0.54,0.84
20.200,0.25,-1.83,1.69,2.50
20.210,0.54,-2.58,1.08,2.84
20.220,0.62,-1.78,-0.15,1.89
20.230,1.02,-0.91,-1.38,1.94
20.240,0.92,-0.58,-0.10,1.09
20.250,0.48,-1.33,-0.73,1.59
20.260,0.63,-1.58,-0.49,1.77
20.270,0.95,-1.64,-0.22,1.91
20.280,1.02,-1.74,-0.37,2.05
20.290,0.62,-1.91,-0.13,2.01
20.300,0.07,-1.54,-0.20,1.56
20.310,-0.22,-0.91,-0.57,1.10
20.320,-0.61,-0.50,-0.94,1.23
20.330,-1.02,-0.30,-0.61,1.23
20.340,-1.18,-0.42,-0.18,1.27
20.350,-1.17,-0.63,-0.09,1.33
20.360,-1.15,-0.69,-0.12,1.35
20.370,-1.16,-0.62,-0.09,1.32
20.380,-1.17,-0.64,0.09,1.34
20.390,-1.37,-0.75,0.56,1.66
20.400,-1.63,-0.85,0.92,2.06
20.410,-1.75,-0.85,0.93,2.15
20.420,-1.85,-0.84,0.98,2.26
20.430,-2.15,-0.87,1.08,2.56
20.439,-2.31,-0.84,1.07,2.68
20.450,-1.93,-1.38,-0.74,2.49
20.459,-1.31,-1.39,-0.53,1.99
20.470,-1.16,-1.07,0.33,1.61
20.480,-1.43,-0.62,1.23,1.98
20.489,-1.81,-0.34,1.69,2.51
20.500,-2.07,-0.24,1.87,2.80
20.509,-2.43,-0.19,1.73,2.98
20.520,-2.73,0.26,0.93,2.89
20.530,-2.60,0.16,0.17,2.61
20.540,-2.06,-0.33,0.06,2.09
