time,ax,ay,az,atotal
0.000,1.44,-1.30,-0.47,2.00
0.010,2.29,-1.74,-0.73,2.97
0.020,2.62,-1.43,-1.23,3.23
0.030,2.08,-0.23,-3.02,3.68
0.040,1.71,0.31,-4.14,4.49
0.050,1.65,-0.73,-2.82,3.35
0.060,1.66,-1.40,-1.32,2.54
0.070,1.73,-1.61,0.07,2.37
0.080,1.77,-1.51,1.09,2.57
0.090,1.93,-1.31,1.75,2.91
0.100,2.22,-1.04,1.59,2.92
0.110,2.47,-0.87,1.07,2.83
0.120,2.47,-0.89,0.62,2.70
0.130,2.12,-0.66,0.51,2.28
0.140,1.77,-0.19,0.42,1.83
0.150,1.72,0.15,0.33,1.76
0.160,1.88,0.17,0.45,1.94
0.170,2.14,-0.37,0.78,2.31
0.180,2.47,-0.93,0.65,2.72
0.190,2.69,-0.92,0.36,2.86
0.200,2.63,-1.02,0.02,2.82
0.210,2.47,-1.05,-0.12,2.68
0.220,2.30,-0.95,-0.03,2.49
0.230,2.16,-0.91,-0.18,2.35
0.239,1.98,-0.46,0.10,2.04
0.250,1.66,-0.34,1.00,1.97
0.260,1.34,-0.71,1.52,2.15
0.270,1.28,-0.83,1.20,1.94
0.280,1.36,-0.59,0.30,1.52
0.290,1.50,-0.50,-0.03,1.58
0.300,1.26,-1.08,0.06,1.66
0.310,1.04,-1.53,0.09,1.85
0.319,0.95,-1.45,0.04,1.73
0.330,0.71,-1.11,0.03,1.32
0.340,0.43,-0.64,0.14,0.78
0.350,0.51,0.35,0.80,1.01
0.360,0.18,0.79,1.67,1.86
0.370,-0.30,0.28,2.37,2.40
0.379,-0.45,-0.56,2.01,2.14
0.390,0.02,-0.60,0.71,0.93
0.399,0.42,-0.29,-0.60,0.79
0.409,0.47,-0.38,-1.09,1.24
0.419,0.57,0.15,-0.83,1.02
0.429,0.42,0.83,0.05,0.93
0.439,0.19,0.86,0.81,1.20
0.449,0.14,0.85,0.85,1.21
0.459,0.20,0.55,0.15,0.60
0.469,0.34,-0.07,-0.74,0.81
0.479,0.57,-0.34,-1.47,1.62
0.489,0.72,-0.27,-1.75,1.91
0.499,0.69,-0.37,-1.59,1.78
0.509,0.64,-0.73,-1.38,1.69
0.519,0.73,-1.42,-1.50,2.19
0.529,1.00,-1.85,-1.70,2.70
0.539,1.41,-2.25,-1.68,3.14
0.549,1.69,-2.49,-1.57,3.39
0.559,1.38,-2.76,-0.47,3.12
0.569,-3.88,-2.05,9.61,10.57
0.579,-6.09,2.34,3.05,7.20
0.589,0.53,-3.61,0.52,3.69
0.599,0.91,-3.04,-4.16,5.23
0.609,1.22,-1.56,-0.57,2.06
0.619,-0.46,-3.06,1.17,3.30
0.629,-0.68,-2.38,0.80,2.60
0.639,0.20,-0.72,1.80,1.95
0.649,0.74,-0.56,2.66,2.82
0.659,0.92,0.37,2.26,2.47
0.669,0.20,2.10,1.52,2.60
0.679,-1.09,3.80,2.02,4.44
0.689,-2.14,4.62,0.07,5.09
0.699,-1.88,4.15,-1.06,4.68
0.709,-1.39,3.44,-1.47,3.99
0.719,-0.40,2.99,-1.53,3.38
0.729,0.28,2.52,-0.76,2.64
0.739,0.45,2.23,-0.79,2.41
0.749,0.58,2.24,-1.44,2.73
0.759,1.08,1.87,-1.65,2.72
0.769,1.54,1.28,-1.19,2.32
0.779,1.76,0.95,-0.67,2.11
0.789,1.58,0.40,0.20,1.64
0.799,0.39,-1.36,0.09,1.42
0.809,0.44,-1.78,1.04,2.10
0.819,0.54,-1.04,3.12,3.33
0.829,0.04,0.54,3.18,3.23
0.839,0.03,1.97,2.46,3.15
0.849,1.42,2.48,3.18,4.28
0.859,2.04,1.49,4.38,5.06
0.869,1.61,1.57,3.62,4.26
0.879,1.31,1.75,2.68,3.46
0.889,0.95,1.31,1.77,2.40
0.899,0.09,1.01,1.33,1.68
0.909,-0.89,1.06,1.64,2.14
0.918,-2.35,1.37,2.21,3.50
0.929,-3.77,1.52,3.03,5.08
0.938,-4.98,1.62,3.46,6.28
0.949,-5.89,1.69,3.54,7.08
0.959,-6.45,1.63,3.48,7.51
0.968,-6.74,1.36,3.35,7.65
0.979,-6.81,0.81,3.24,7.59
0.989,-6.78,0.03,3.09,7.45
0.999,-6.67,-0.45,2.87,7.27
1.009,-6.41,-0.52,2.66,6.96
1.018,-6.12,-0.35,2.47,6.61
1.028,-5.80,-0.29,2.34,6.26
1.038,-5.41,-0.08,2.01,5.77
1.049,-4.89,0.33,1.52,5.13
1.058,-4.51,0.45,1.25,4.70
1.068,-4.05,0.29,1.03,4.19
1.078,-3.46,0.22,0.52,3.51
1.088,-2.91,0.18,0.05,2.92
1.098,-2.33,0.07,-0.20,2.34
1.108,-1.84,0.12,-0.58,1.93
1.118,-1.45,0.36,-0.92,1.75
1.128,-1.07,0.75,-1.18,1.76
1.138,-0.76,1.07,-1.41,1.92
1.148,-0.57,0.98,-1.75,2.09
1.158,-0.40,0.96,-1.94,2.20
1.168,-0.20,1.00,-2.15,2.38
1.178,-0.06,1.08,-2.47,2.69
1.188,-0.03,1.12,-2.55,2.79
1.198,-0.04,1.26,-2.65,2.93
1.208,0.00,1.45,-2.84,3.19
1.218,0.16,1.53,-3.27,3.62
1.228,0.16,1.72,-4.08,4.43
1.238,0.26,1.81,-4.61,4.96
1.248,0.12,2.23,-5.10,5.57
1.258,0.04,2.53,-4.78,5.41
1.268,-0.01,2.68,-4.53,5.26
1.278,-0.07,2.63,-4.76,5.44
1.288,0.02,2.44,-4.51,5.13
1.298,0.19,2.16,-4.59,5.07
1.308,0.50,1.85,-4.80,5.17
1.318,0.81,1.77,-4.79,5.17
1.328,1.01,1.94,-4.96,5.42
1.338,1.33,2.32,-4.95,5.63
1.348,1.25,3.66,-5.21,6.48
1.358,1.15,4.47,-5.14,6.90
1.368,1.47,3.78,-4.18,5.82
1.378,1.70,2.49,-3.18,4.38
1.388,1.85,1.75,-3.00,3.93
1.398,1.91,1.28,-3.01,3.78
1.408,1.92,0.69,-3.21,3.80
1.418,2.15,0.32,-3.22,3.88
1.428,2.52,0.43,-2.98,3.93
1.438,2.86,0.94,-2.66,4.02
1.448,2.83,1.52,-2.39,4.00
1.458,2.54,1.47,-1.93,3.51
1.468,2.27,1.15,-1.44,2.92
1.478,1.79,0.71,-1.06,2.20
1.488,1.23,-0.09,-1.03,1.60
1.498,0.71,-0.78,-1.18,1.59
1.508,0.49,-0.82,-0.90,1.31
1.518,0.37,-0.34,-0.60,0.78
1.528,0.27,0.17,-0.45,0.55
1.538,0.23,0.46,-0.41,0.65
1.548,0.39,0.55,-0.44,0.81
1.558,0.67,0.91,-0.40,1.20
1.568,0.76,1.19,-0.52,1.51
1.578,0.85,1.05,-0.79,1.57
1.588,0.94,1.05,-1.20,1.85
1.598,1.07,0.91,-1.52,2.07
1.608,1.37,0.44,-1.61,2.16
1.618,1.63,0.63,-1.48,2.30
1.628,3.10,2.24,-1.11,3.98
1.638,10.00,6.40,3.92,12.50
1.648,8.05,3.75,5.25,10.31
1.658,5.39,1.62,1.81,5.92
1.668,3.51,0.67,1.26,3.79
1.677,1.82,0.73,1.85,2.69
1.688,0.87,-0.37,1.96,2.17
1.698,0.05,-1.22,1.67,2.07
1.708,-1.18,0.02,0.49,1.28
1.717,-2.03,0.40,-1.08,2.33
1.728,-1.94,1.10,1.45,2.66
1.737,-1.69,0.65,2.94,3.45
1.747,-2.19,-0.79,0.48,2.38
1.757,-1.51,-1.32,-0.26,2.02
1.768,-1.02,-0.98,-0.38,1.46
1.777,-0.73,-0.53,-0.61,1.09
1.788,-0.11,0.16,-0.89,0.91
1.797,0.28,0.57,-0.85,1.06
1.807,0.55,0.93,-1.01,1.48
1.817,0.86,1.19,-0.84,1.69
1.827,1.27,1.01,-0.34,1.65
1.837,1.66,0.64,-0.09,1.78
1.848,1.78,0.27,-0.37,1.84
1.857,1.91,0.28,-0.62,2.03
1.867,1.88,0.41,-0.83,2.09
1.877,1.69,0.44,-0.68,1.87
1.887,1.56,0.46,-0.50,1.70
1.897,1.52,0.40,-0.53,1.66
1.907,1.33,0.24,-0.42,1.41
1.917,0.90,-0.00,-0.08,0.91
1.927,0.44,-0.01,0.73,0.86
1.937,-0.12,0.12,1.13,1.14
1.947,-0.12,-0.06,1.29,1.30
1.957,-0.02,-0.13,1.33,1.34
1.967,0.08,-0.19,1.09,1.11
1.977,0.13,-0.35,0.84,0.92
1.987,0.22,-0.15,0.72,0.76
1.997,0.43,0.28,0.49,0.71
2.007,-0.52,1.50,0.09,1.59
2.017,0.19,0.14,-0.67,0.72
2.027,0.15,1.76,-0.50,1.83
2.037,-0.80,4.01,-0.18,4.09
2.047,-0.02,5.32,-1.56,5.54
2.057,2.45,-1.58,-0.70,3.00
2.067,1.50,-3.35,-0.11,3.67
2.077,2.15,-0.62,0.66,2.33
2.087,3.73,0.03,0.29,3.74
2.097,4.45,0.50,-0.37,4.50
2.107,3.71,1.58,0.19,4.04
2.117,2.61,1.89,0.44,3.25
2.127,1.54,1.46,0.21,2.13
2.137,0.77,1.30,-0.13,1.52
2.147,0.20,1.56,-0.40,1.63
2.157,-0.68,1.60,-0.76,1.90
2.167,-1.39,0.59,-1.54,2.16
2.177,-1.67,-0.64,-1.91,2.62
2.187,-1.91,-1.23,-1.77,2.88
2.197,-2.11,-1.53,-1.28,2.90
2.207,-2.29,-1.90,-0.76,3.07
2.217,-2.45,-2.38,-0.42,3.44
2.227,-2.56,-2.80,-0.15,3.80
2.237,-2.84,-3.08,-0.10,4.19
2.247,-3.26,-3.09,0.38,4.51
2.257,-3.51,-3.10,0.66,4.73
2.267,-3.72,-3.04,0.85,4.88
2.277,-3.67,-2.51,0.89,4.54
2.287,-3.36,-1.94,0.69,3.94
2.297,-2.26,-0.90,1.17,2.70
2.307,-1.08,-0.56,1.89,2.25
2.317,-0.78,-1.01,0.82,1.52
2.327,-0.12,-0.21,0.86,0.89
2.337,0.45,-0.20,0.92,1.04
2.347,0.51,-0.50,0.48,0.86
2.356,0.64,-0.40,0.32,0.82
2.367,0.84,-0.46,0.15,0.97
2.376,0.69,-0.72,-0.35,1.06
2.387,0.63,-0.69,-1.05,1.40
2.396,0.78,-0.34,-1.38,1.62
2.407,1.01,-0.00,-1.32,1.66
2.416,1.30,0.31,-0.69,1.51
2.426,1.48,0.45,-0.39,1.59
2.436,1.61,1.03,-0.22,1.92
2.447,1.40,0.94,-0.26,1.70
2.456,1.22,1.55,0.44,2.02
2.467,1.20,1.34,1.09,2.10
2.476,1.18,0.98,1.47,2.12
2.486,0.79,0.22,1.19,1.45
2.496,0.16,-0.03,0.38,0.41
2.506,-0.27,0.35,-0.33,0.55
2.516,-0.40,0.38,-0.85,1.01
2.526,-0.23,0.76,-0.89,1.19
2.536,-0.26,1.10,-1.16,1.62
2.546,-0.34,1.18,-1.14,1.68
2.556,-0.30,1.31,-1.16,1.77
2.566,0.10,1.31,-1.41,1.93
2.576,0.50,1.34,-1.19,1.86
2.586,0.59,0.99,-0.84,1.43
2.596,0.87,0.76,-0.42,1.23
2.606,0.91,0.49,-0.57,1.18
2.616,0.81,0.01,-1.23,1.47
2.626,0.95,-0.41,-1.22,1.60
2.636,1.09,-0.51,-0.32,1.25
2.646,0.89,-0.51,0.87,1.35
2.656,0.65,-0.37,1.79,1.94
2.666,0.05,-0.33,2.61,2.63
2.676,-0.13,-0.29,2.36,2.39
2.686,-0.03,-0.26,1.61,1.63
2.696,-0.05,-0.39,1.03,1.10
2.706,-0.59,-0.77,0.65,1.17
2.716,-1.35,-0.91,0.63,1.75
2.726,-2.07,-1.29,0.27,2.45
2.736,-2.13,-0.96,-0.50,2.39
2.746,-1.60,-0.76,-0.45,1.83
2.756,-1.35,-0.92,-0.41,1.68
2.766,0.13,-0.52,-0.06,0.54
2.776,0.56,-0.04,-0.13,0.58
2.786,0.93,-0.47,-0.94,1.40
2.796,1.72,-0.22,-1.88,2.56
2.806,2.52,-0.22,-2.20,3.36
2.816,2.92,-0.04,-1.65,3.35
2.826,2.92,0.34,-0.54,2.99
2.836,3.04,0.57,0.10,3.10
2.846,2.79,1.03,0.08,2.97
2.856,2.59,1.56,-0.27,3.03
2.866,2.33,1.55,-0.63,2.87
2.876,0.75,1.41,-0.60,1.71
2.886,-0.77,0.53,-1.29,1.59
2.896,-1.37,-0.92,-1.71,2.38
2.906,-2.23,-0.66,-1.05,2.55
2.916,-1.86,-0.80,-0.71,2.15
2.926,-0.78,-0.82,-0.59,1.28
2.936,-5.58,7.80,-0.26,9.59
2.946,-1.91,-3.29,-1.80,4.21
2.956,-1.88,-1.16,-2.17,3.10
2.966,-1.28,1.15,-1.09,2.04
2.976,-1.05,1.99,-0.50,2.31
2.986,-0.77,1.01,0.57,1.39
2.996,-0.24,0.91,0.89,1.29
3.006,0.34,1.38,0.72,1.59
3.015,0.47,1.47,0.64,1.67
3.026,0.65,1.59,1.15,2.07
3.036,1.18,1.92,1.41,2.66
3.046,1.11,1.51,-0.17,1.89
3.056,1.37,0.79,-0.65,1.71
3.066,2.07,-0.21,-2.03,2.91
3.076,3.00,-0.59,-2.97,4.27
3.086,2.73,0.15,-3.12,4.15
3.095,2.46,0.88,-3.20,4.13
3.106,2.46,1.18,-3.26,4.25
3.116,1.85,1.31,-2.35,3.27
3.126,1.48,1.09,-1.26,2.23
3.135,0.94,0.92,-0.71,1.50
3.146,0.02,0.83,-0.43,0.94
3.155,-1.10,0.99,0.50,1.57
3.165,-2.08,-0.09,1.24,2.42
3.175,-2.79,-0.42,1.19,3.06
3.186,-3.01,-0.06,0.79,3.11
3.195,-2.88,-0.12,1.13,3.09
3.205,-2.04,-0.43,1.34,2.48
3.215,-1.40,-0.07,1.18,1.83
3.225,-0.65,-0.20,1.08,1.28
3.235,-0.40,-0.38,0.94,1.09
3.245,-0.60,-0.72,0.57,1.09
3.255,-0.13,-0.41,-0.02,0.43
3.265,1.00,0.04,0.18,1.01
3.275,1.17,0.27,0.28,1.23
3.286,0.24,0.11,0.37,0.45
3.295,-0.88,-0.10,0.36,0.96
3.305,0.24,-0.56,0.40,0.73
3.315,3.32,-0.76,0.43,3.44
3.325,3.37,-0.92,0.04,3.50
3.335,2.49,-1.79,-0.22,3.07
3.345,1.64,-2.28,0.40,2.84
3.355,0.57,-2.44,0.69,2.60
3.365,0.28,-2.50,0.89,2.67
3.375,0.33,-2.38,1.14,2.66
3.386,0.33,-2.28,1.15,2.58
3.395,0.65,-1.86,1.38,2.40
3.405,0.88,-1.21,1.62,2.21
3.415,0.68,-1.05,1.41,1.88
3.425,0.30,-1.15,1.10,1.62
3.435,0.13,-0.63,1.11,1.29
3.445,0.54,0.35,1.53,1.66
3.455,1.14,1.12,2.69,3.13
3.465,0.85,2.90,-1.38,3.32
3.475,2.44,1.46,-0.04,2.84
3.485,1.24,3.07,-0.56,3.36
3.495,1.21,1.48,-1.37,2.35
3.505,0.91,1.52,-2.25,2.87
3.515,0.75,2.20,-3.92,4.56
3.525,0.09,1.79,-4.93,5.25
3.535,-1.22,1.23,-3.97,4.33
3.545,-1.95,2.57,-2.49,4.07
3.555,-2.00,3.23,-0.71,3.87
3.565,-1.82,2.87,0.34,3.41
3.575,-0.93,2.74,0.72,2.99
3.585,0.00,2.94,0.75,3.04
3.595,0.63,2.68,0.54,2.80
3.605,0.80,2.62,0.35,2.76
3.615,0.62,2.76,0.14,2.83
3.625,0.33,2.32,0.16,2.35
3.635,0.20,2.99,1.45,3.33
3.645,1.37,5.33,4.82,7.32
3.654,2.58,3.72,4.18,6.16
3.665,1.03,1.88,-1.58,2.66
3.675,-0.07,1.10,-4.57,4.70
3.685,-1.13,0.99,-5.20,5.41
3.695,-1.21,1.07,-4.01,4.32
3.705,-0.52,2.03,-2.06,2.93
3.715,-0.09,3.03,-0.18,3.03
3.725,0.65,3.37,0.91,3.55
3.735,1.24,3.55,1.24,3.96
3.745,1.47,3.15,0.60,3.53
3.755,1.73,2.74,-0.41,3.27
3.765,2.50,2.76,-0.58,3.77
3.774,3.46,1.80,-2.49,4.63
3.785,4.07,1.55,-3.14,5.37
3.794,4.15,1.24,-3.28,5.43
3.805,4.22,0.45,-2.63,4.99
3.814,4.21,0.07,-1.51,4.47
3.824,3.96,0.10,-0.35,3.97
3.835,3.53,0.14,0.24,3.54
3.844,3.21,-0.23,0.26,3.23
3.855,2.95,-0.50,-0.09,3.00
3.864,2.57,-0.57,-0.42,2.66
3.874,2.35,-0.65,-0.92,2.61
3.885,2.16,-0.77,-1.49,2.73
3.894,1.84,-1.14,-2.10,3.02
3.904,1.59,-1.18,-2.41,3.12
3.914,1.26,-0.67,-2.34,2.74
3.924,0.87,-0.11,-1.90,2.09
3.934,0.53,0.40,-1.49,1.63
3.944,0.30,0.99,-1.27,1.64
3.954,0.21,1.18,-1.68,2.07
3.964,0.20,1.11,-2.72,2.94
3.974,0.09,1.26,-3.69,3.90
3.984,-0.06,1.38,-4.25,4.47
3.994,-0.20,1.37,-4.58,4.79
4.004,-0.27,1.84,-4.44,4.81
4.014,-0.34,2.31,-4.04,4.67
4.024,-0.61,1.85,-4.24,4.66
4.034,-0.91,1.36,-4.43,4.73
4.044,-1.17,1.32,-4.37,4.72
4.054,-1.55,1.19,-4.08,4.53
4.064,-1.90,1.17,-3.62,4.25
4.074,-2.01,1.22,-3.14,3.92
4.084,-2.03,1.40,-2.95,3.84
4.094,-1.89,1.34,-3.20,3.95
4.104,-1.84,0.98,-3.44,4.03
4.114,-1.93,0.86,-3.12,3.77
4.124,-2.06,0.94,-2.48,3.36
4.134,-2.21,0.71,-1.86,2.98
4.144,-2.36,0.41,-1.43,2.79
4.154,-2.39,0.30,-0.87,2.56
4.164,-2.39,0.14,-0.29,2.42
4.174,-2.47,-0.02,0.17,2.48
4.184,-2.37,-0.00,0.45,2.42
4.194,-2.22,0.26,0.80,2.38
4.204,-2.11,0.26,0.92,2.32
4.214,-1.90,-0.01,0.84,2.07
4.224,-1.59,0.03,1.07,1.91
4.234,-1.40,0.58,1.49,2.12
4.244,-1.39,1.14,2.39,2.99
4.254,-1.69,1.48,2.68,3.50
4.264,-1.56,1.94,0.88,2.64
4.274,-1.35,2.08,0.82,2.61
4.284,-1.47,2.55,0.74,3.03
4.294,-1.72,2.90,1.74,3.79
4.304,-1.94,2.95,2.34,4.23
4.314,-2.03,2.77,2.21,4.08
4.324,-1.89,2.53,2.04,3.76
4.334,-2.03,2.30,1.53,3.43
4.344,-2.12,1.94,1.04,3.05
4.354,-2.04,1.97,0.91,2.98
4.364,-2.03,1.85,0.99,2.91
4.373,-2.15,1.42,1.30,2.88
4.384,-2.32,1.00,1.75,3.08
4.394,-2.43,0.30,2.18,3.28
4.404,-2.50,-0.32,2.39,3.47
4.414,-2.50,-0.59,2.44,3.54
4.424,-2.42,-0.78,2.23,3.38
4.434,-2.27,-1.04,2.04,3.22
4.444,-2.21,-1.19,2.12,3.29
4.454,-2.26,-1.27,2.11,3.34
4.464,-2.30,-1.07,2.21,3.37
4.474,-2.10,-0.65,2.25,3.14
4.484,-1.88,-0.29,2.56,3.19
4.493,-1.71,0.26,2.75,3.25
4.504,-1.47,0.60,2.63,3.07
4.514,-0.98,1.23,2.24,2.74
4.524,-0.42,1.93,2.31,3.04
4.534,0.09,1.84,2.40,3.03
4.543,0.61,1.63,2.54,3.08
4.553,1.04,1.42,2.26,2.86
4.563,1.38,1.26,1.61,2.47
4.573,1.70,1.16,1.04,2.30
4.583,2.03,1.00,0.24,2.28
4.593,2.37,0.75,-0.20,2.49
4.603,2.68,0.32,-0.17,2.70
4.613,2.98,0.39,0.06,3.01
4.623,3.21,0.61,0.78,3.36
4.633,5.67,1.89,4.33,7.38
4.643,11.28,3.59,0.88,11.87
4.653,8.41,-0.17,5.51,10.05
4.663,2.54,-2.60,2.31,4.31
4.673,1.29,-2.24,-0.30,2.60
4.683,2.95,-3.39,-3.21,5.52
4.693,4.81,-5.57,-3.12,8.00
4.703,3.88,-4.76,-1.43,6.30
4.713,1.89,-2.74,0.65,3.39
4.723,0.40,-1.50,2.36,2.83
4.733,0.06,-0.92,2.84,2.99
4.743,0.35,-0.68,1.97,2.11
4.753,0.39,-0.16,0.73,0.84
4.763,0.31,0.09,1.59,1.62
4.773,0.25,0.86,0.74,1.17
4.783,0.17,1.04,-0.05,1.06
4.793,1.31,-0.93,0.15,1.62
4.803,1.31,-1.15,-1.41,2.24
4.813,1.39,-2.02,0.80,2.58
4.823,0.36,-3.18,2.33,3.95
4.833,-1.52,-0.73,-2.22,2.79
4.843,-1.41,1.90,-3.69,4.38
4.853,0.04,3.59,-0.65,3.65
4.863,-0.54,2.18,0.82,2.39
4.873,-1.06,0.41,-1.04,1.54
4.883,-0.37,1.18,-1.58,2.00
4.893,-0.33,1.62,-2.41,2.92
4.903,-0.03,1.44,-2.39,2.79
4.913,0.11,0.64,-2.14,2.24
4.923,0.19,-0.37,-1.62,1.67
4.933,0.53,-1.03,-0.77,1.39
4.943,0.32,-1.50,-0.79,1.72
4.953,0.21,-1.33,-1.52,2.03
4.963,0.27,-0.68,-2.39,2.50
4.973,0.28,-0.02,-2.61,2.63
4.983,0.11,0.35,-2.04,2.07
4.993,-0.19,0.31,-1.40,1.44
5.003,-0.09,0.05,-0.88,0.89
5.013,0.01,-0.19,-0.36,0.40
5.023,0.00,-0.45,0.01,0.45
5.033,0.01,-0.60,-0.39,0.71
5.043,0.13,-0.50,-0.93,1.06
5.053,0.29,-0.47,-1.21,1.33
5.063,0.24,-0.32,-1.50,1.55
5.073,0.27,-0.22,-1.46,1.51
5.082,0.21,-0.30,-1.15,1.20
5.093,0.19,-0.32,-0.59,0.70
5.103,0.20,-0.38,-0.15,0.45
5.113,0.02,-0.40,0.13,0.42
5.123,-0.10,-0.30,0.28,0.42
5.133,-0.17,-0.30,0.21,0.41
5.142,-0.28,-0.31,0.05,0.43
5.152,-0.43,-0.27,0.02,0.51
5.163,-0.49,-0.34,-0.04,0.60
5.173,-0.54,-0.63,-0.45,0.94
5.182,-0.51,-0.90,-0.91,1.38
5.192,-0.52,-0.95,-1.26,1.66
5.202,-0.53,-0.91,-1.43,1.78
5.212,-0.41,-0.94,-1.50,1.81
5.222,-0.31,-1.03,-1.44,1.79
5.232,-0.28,-0.98,-1.19,1.57
5.243,-0.28,-0.92,-0.90,1.32
5.252,-0.28,-1.00,-0.65,1.22
5.262,-0.26,-0.98,-0.57,1.16
5.272,-0.22,-0.75,-0.80,1.12
5.282,-0.14,-0.51,-1.12,1.24
5.292,0.01,-0.39,-1.32,1.38
5.302,0.03,-0.43,-1.29,1.36
5.312,-0.20,-0.37,-1.04,1.12
5.322,-0.46,-0.13,-0.73,0.87
5.332,-0.61,0.21,-0.50,0.82
5.342,-0.77,0.54,-0.20,0.96
5.352,-0.96,0.54,0.06,1.10
5.362,-1.07,0.62,0.38,1.30
5.372,-1.06,0.59,0.66,1.38
5.382,-1.08,0.34,0.74,1.35
5.392,-1.13,0.25,0.73,1.37
5.402,-1.14,0.30,0.65,1.35
5.412,-1.10,0.15,0.44,1.20
5.422,-1.00,-0.05,0.19,1.02
5.432,-0.94,-0.10,0.09,0.95
5.442,-0.88,-0.11,0.02,0.89
5.452,-0.89,-0.17,-0.05,0.91
5.462,-1.05,-0.25,0.17,1.09
5.472,-1.23,-0.18,0.50,1.34
5.482,-1.26,-0.02,0.65,1.41
5.492,-1.16,0.07,0.66,1.33
5.502,-1.08,0.09,0.78,1.34
5.512,-1.14,0.07,0.90,1.46
5.522,-1.31,0.21,0.89,1.59
5.532,-1.33,0.45,0.58,1.52
5.542,-1.26,0.71,0.36,1.49
5.552,-1.25,0.85,0.53,1.60
5.562,-1.24,0.84,0.74,1.67
5.572,-1.18,0.97,0.93,1.79
5.582,-1.17,1.10,1.10,1.95
5.592,-1.02,1.22,1.14,1.96
5.602,-0.75,1.28,1.07,1.83
5.612,-0.71,1.15,1.06,1.72
5.622,-0.77,0.93,0.91,1.51
5.632,-0.69,0.85,0.64,1.27
5.642,-0.50,0.90,0.48,1.13
5.652,-0.29,0.93,0.57,1.13
5.662,0.01,0.77,0.70,1.04
5.672,0.39,0.50,0.77,1.00
5.682,0.70,0.19,0.94,1.19
5.692,0.69,-0.15,1.22,1.41
5.702,0.56,-0.33,1.41,1.55
5.712,0.45,-0.29,1.28,1.39
5.722,0.41,-0.18,0.93,1.03
5.732,0.41,-0.19,0.26,0.52
5.742,0.48,-0.21,-0.46,0.70
5.752,0.43,-0.25,-0.89,1.02
5.762,0.24,-0.22,-0.93,0.98
5.772,0.19,-0.11,-0.87,0.90
5.782,0.24,-0.06,-0.73,0.77
5.792,0.28,-0.20,-0.41,0.54
5.801,0.29,-0.41,-0.11,0.51
5.811,0.22,-0.49,0.10,0.55
5.822,0.09,-0.51,0.28,0.59
5.831,-0.10,-0.42,0.43,0.61
5.841,-0.20,-0.11,0.52,0.57
5.851,-0.30,0.10,0.33,0.46
5.861,-0.35,0.16,0.04,0.39
5.871,-0.28,0.12,-0.31,0.44
5.882,-0.23,-0.04,-0.51,0.56
5.891,-0.16,-0.17,-0.56,0.61
5.901,-0.21,0.03,-0.47,0.52
5.911,-0.34,0.31,-0.13,0.48
5.921,-0.43,0.33,0.16,0.57
5.931,-0.40,0.32,0.27,0.58
5.941,-0.33,0.39,0.38,0.64
5.951,-0.26,0.42,0.55,0.74
5.961,-0.14,0.31,0.44,0.56
5.971,0.04,0.14,0.20,0.24
5.981,0.23,0.00,-0.01,0.23
5.991,0.36,-0.06,-0.11,0.38
6.001,0.40,-0.10,-0.12,0.43
6.011,0.40,-0.00,-0.09,0.41
6.021,0.38,0.20,0.14,0.45
6.031,0.31,0.24,0.39,0.56
6.041,0.28,0.20,0.59,0.69
6.051,0.32,0.21,0.56,0.67
6.061,0.33,0.20,0.20,0.44
6.071,0.36,0.20,-0.19,0.45
6.081,0.37,0.12,-0.55,0.67
6.091,0.31,0.11,-0.68,0.75
6.101,0.16,0.24,-0.57,0.64
6.111,-0.04,0.30,-0.20,0.37
6.121,-0.24,0.36,0.25,0.50
6.131,-0.42,0.52,0.58,0.89
6.141,-0.48,0.68,0.61,1.03
6.151,-0.41,0.62,0.24,0.78
6.161,-0.34,0.40,-0.08,0.53
6.171,-0.22,0.13,-0.44,0.51
6.181,-0.08,-0.09,-0.68,0.69
6.191,-0.04,-0.23,-0.73,0.77
6.201,-0.06,-0.29,-0.69,0.75
6.211,-0.13,-0.22,-0.51,0.57
6.221,-0.22,-0.09,-0.32,0.40
6.231,-0.30,-0.06,-0.30,0.43
6.241,-0.28,-0.14,-0.47,0.57
6.251,-0.10,-0.24,-0.79,0.83
6.261,0.01,-0.34,-1.20,1.25
6.271,0.15,-0.27,-1.55,1.58
6.281,0.32,-0.24,-1.67,1.71
6.291,0.45,-0.24,-1.44,1.52
6.301,0.54,-0.23,-0.98,1.14
6.311,0.60,-0.25,-0.57,0.87
6.321,0.69,-0.24,-0.23,0.77
6.331,0.73,-0.26,0.03,0.78
6.340,0.68,-0.16,0.23,0.73
6.351,0.46,-0.09,0.33,0.57
6.361,0.17,0.05,0.39,0.43
6.371,-0.06,0.23,0.39,0.46
6.381,-0.19,0.27,0.32,0.46
6.391,-0.29,0.31,0.41,0.59
6.401,-0.45,0.32,0.63,0.84
6.411,-0.52,0.40,0.70,0.95
6.421,-0.47,0.41,0.73,0.96
6.431,-0.45,0.31,0.88,1.04
6.441,-0.49,0.21,1.14,1.25
6.451,-0.44,0.15,1.35,1.43
6.461,-0.27,0.23,1.45,1.49
6.471,-0.13,0.22,1.64,1.66
6.480,0.02,0.06,1.65,1.65
6.491,0.13,-0.03,1.41,1.42
6.501,0.16,0.01,1.14,1.15
6.510,0.26,0.13,0.79,0.84
6.521,0.24,0.34,0.94,1.03
6.531,0.05,0.43,1.00,1.09
6.541,0.00,0.75,0.54,0.92
6.550,0.04,1.31,0.04,1.31
6.560,0.11,1.59,-0.59,1.70
6.571,0.31,1.66,-1.25,2.11
6.580,0.66,1.69,-1.65,2.45
6.590,1.03,1.57,-1.81,2.61
6.600,1.60,1.51,-1.92,2.92
6.610,2.25,1.36,-1.96,3.28
6.620,2.84,0.98,-1.87,3.54
6.630,3.45,0.65,-1.60,3.86
6.641,3.87,0.12,-1.29,4.08
6.650,3.78,-0.57,-1.06,3.97
6.660,3.59,-0.96,-0.85,3.81
6.670,3.35,-1.21,-0.75,3.64
6.680,2.98,-1.42,-0.54,3.35
6.690,2.39,-1.15,0.03,2.65
6.700,1.81,-0.27,0.64,1.94
6.710,1.32,0.56,1.08,1.79
6.720,0.83,0.87,1.34,1.80
6.730,0.42,0.53,1.33,1.49
6.740,-0.03,-0.55,0.86,1.02
6.750,-0.31,-1.49,0.06,1.52
6.760,-0.71,-1.84,-0.55,2.05
6.770,-1.15,-1.80,-0.85,2.30
6.780,-1.33,-1.76,-1.16,2.49
6.790,-1.69,-1.56,-0.98,2.49
6.800,-2.22,-1.14,-0.04,2.50
6.810,-2.52,-1.08,0.97,2.91
6.820,-2.73,-1.32,2.06,3.66
6.830,-2.82,-1.58,2.52,4.10
6.840,-2.75,-1.40,2.53,3.99
6.850,-2.62,-1.08,2.36,3.69
6.860,-2.55,-0.92,2.37,3.60
6.870,-2.63,-0.77,2.85,3.95
6.880,-2.79,-0.56,3.45,4.47
6.890,-2.94,-0.60,3.84,4.87
6.900,-2.71,-0.74,3.57,4.55
6.910,-2.16,-0.72,2.30,3.23
6.920,-1.76,-0.63,1.15,2.19
6.930,-1.66,-0.76,0.72,1.96
6.940,-1.80,-0.85,0.61,2.08
6.950,-1.93,-0.45,0.45,2.04
6.960,-2.05,-0.22,0.29,2.08
6.970,-2.37,-0.45,0.15,2.41
6.980,-2.54,-0.59,-0.03,2.61
6.990,-2.66,-0.43,-0.38,2.72
7.000,-3.03,0.07,0.02,3.03
7.010,-3.34,0.07,0.14,3.35
7.020,-3.19,0.00,-0.22,3.20
7.030,-2.61,-0.07,-0.93,2.77
7.040,-1.87,-0.19,-1.81,2.61
7.050,-1.18,-0.16,-2.68,2.93
7.060,-0.72,0.04,-2.96,3.05
7.070,-0.55,-0.08,-2.79,2.84
7.080,-0.59,0.10,-2.30,2.38
7.090,-0.91,0.98,-1.12,1.74
7.100,-1.19,1.71,-0.52,2.14
7.109,-0.93,2.78,-0.80,3.04
7.120,-0.74,3.58,-1.49,3.95
7.130,-0.88,3.57,-2.25,4.31
7.140,-1.01,3.30,-2.88,4.49
7.150,-1.25,3.37,-2.79,4.55
7.160,-1.68,3.54,-2.10,4.44
7.169,-2.15,4.02,-1.11,4.69
7.180,-2.22,4.89,0.21,5.38
7.190,-1.84,5.16,1.65,5.72
7.200,-1.12,4.76,2.83,5.65
7.209,-0.21,4.14,3.13,5.20
7.220,0.64,3.60,2.98,4.72
7.230,1.48,3.14,2.99,4.58
7.239,2.44,2.53,2.60,4.37
7.249,3.56,1.73,2.12,4.49
7.259,4.52,0.63,2.67,5.29
7.269,4.92,-0.49,4.02,6.37
7.280,4.68,-0.77,6.38,7.94
7.289,4.36,-1.43,7.88,9.12
7.299,4.19,-2.48,7.62,9.04
7.309,4.28,-3.20,6.62,8.51
7.319,4.56,-3.77,5.37,7.99
7.329,4.72,-4.32,4.15,7.63
7.339,4.60,-4.78,2.99,7.28
7.349,4.31,-4.85,2.30,6.88
7.359,3.90,-4.31,2.46,6.31
7.369,3.18,-3.52,3.62,5.97
7.379,2.59,-3.34,4.08,5.87
7.389,2.61,-3.26,3.33,5.34
7.399,2.71,-3.29,2.53,4.96
7.409,2.61,-3.74,1.61,4.84
7.419,2.46,-3.86,0.49,4.61
7.429,2.42,-3.64,-0.60,4.41
7.439,2.27,-3.31,-1.71,4.36
7.449,2.04,-2.65,-2.63,4.25
7.459,1.65,-1.75,-2.56,3.52
7.469,1.22,-1.35,-1.80,2.56
7.479,0.92,-1.34,-1.34,2.10
7.489,0.75,-1.29,-1.34,2.00
7.499,0.64,-1.40,-1.74,2.32
7.509,0.60,-1.49,-2.45,2.93
7.519,0.66,-1.31,-3.22,3.54
7.529,0.76,-0.94,-3.93,4.12
7.539,0.53,-0.71,-4.19,4.28
7.549,0.03,-0.49,-4.11,4.14
7.559,-0.39,-0.12,-3.73,3.76
7.569,-0.62,0.07,-3.00,3.06
7.579,-0.67,0.02,-2.03,2.14
7.589,-0.59,-0.14,-1.14,1.29
7.599,-0.45,-0.68,-0.38,0.90
7.609,-0.36,-1.28,0.05,1.34
7.619,-0.30,-1.70,-0.04,1.73
7.629,-0.44,-1.67,-0.66,1.85
7.639,-0.80,-1.08,-1.39,1.94
7.649,-0.92,-0.42,-1.85,2.11
7.659,-0.92,-0.25,-1.98,2.20
7.669,-0.91,-0.34,-1.75,2.00
7.679,-0.79,-0.41,-1.18,1.48
7.689,-0.71,-0.51,-0.39,0.96
7.699,-0.58,-0.64,0.18,0.88
7.709,-0.39,-0.73,0.26,0.87
7.719,-0.34,-0.82,0.15,0.90
7.729,-0.64,-0.64,-0.03,0.91
7.739,-0.86,-0.12,-0.53,1.01
7.749,-0.88,0.45,-0.87,1.31
7.759,-0.93,0.92,-0.78,1.52
7.769,-1.07,1.09,-0.26,1.55
7.779,-1.07,1.04,0.29,1.52
7.789,-0.84,0.98,0.51,1.39
7.799,-0.58,0.98,0.36,1.19
7.809,-0.44,0.99,0.24,1.11
7.819,-0.40,0.93,0.08,1.01
7.829,-0.38,0.99,-0.06,1.06
7.839,-0.30,0.99,-0.22,1.06
7.849,-0.27,0.93,-0.37,1.04
7.858,-0.25,1.01,-0.52,1.16
7.869,-0.19,0.99,-0.67,1.21
7.878,-0.08,0.80,-0.60,1.00
7.889,0.02,0.53,-0.28,0.60
7.898,0.12,0.32,-0.03,0.34
7.908,0.15,0.20,0.13,0.28
7.918,0.05,0.14,0.16,0.22
7.928,0.02,0.20,0.13,0.24
7.938,0.03,0.19,0.18,0.26
7.948,0.05,0.06,0.23,0.24
7.958,0.07,0.08,0.20,0.23
7.968,0.09,0.10,0.03,0.14
7.978,0.14,0.06,-0.11,0.19
7.988,0.18,0.01,-0.23,0.29
7.998,0.25,-0.03,-0.31,0.40
8.008,0.31,-0.09,-0.29,0.44
8.018,0.32,-0.13,-0.29,0.45
8.028,0.34,-0.16,-0.42,0.56
8.038,0.36,-0.23,-0.31,0.53
8.048,0.33,-0.29,0.02,0.44
8.058,0.20,-0.26,0.34,0.47
8.068,0.07,-0.17,0.55,0.58
8.078,-0.05,-0.06,0.56,0.56
8.088,-0.16,0.01,0.37,0.40
8.098,-0.17,0.14,0.12,0.25
8.108,-0.15,0.12,0.08,0.20
8.118,-0.11,0.07,0.15,0.20
8.128,-0.01,0.06,0.14,0.15
8.138,0.03,-0.06,0.15,0.16
8.148,0.07,-0.20,0.16,0.27
8.158,0.13,-0.27,0.24,0.38
8.168,0.16,-0.28,0.29,0.44
8.178,0.14,-0.07,0.07,0.18
8.188,0.20,0.16,-0.09,0.27
8.198,0.17,0.18,-0.07,0.26
8.208,0.11,0.25,-0.03,0.27
8.218,0.14,0.31,-0.01,0.34
8.228,0.19,0.20,0.14,0.31
8.238,0.22,0.03,0.22,0.31
8.248,0.28,0.01,0.18,0.34
8.258,0.41,0.02,0.15,0.43
8.268,0.48,0.02,0.17,0.50
8.278,0.49,0.07,0.13,0.51
8.288,0.45,0.12,0.09,0.48
8.298,0.39,0.11,0.01,0.40
8.308,0.34,0.12,-0.03,0.36
8.318,0.34,0.10,-0.01,0.35
8.328,0.32,0.08,0.20,0.39
8.338,0.33,0.02,0.43,0.55
8.348,0.26,0.01,0.59,0.65
8.358,0.21,-0.01,0.52,0.56
8.368,0.21,-0.07,0.28,0.35
8.378,0.16,-0.04,0.07,0.17
8.388,0.09,0.09,0.01,0.13
8.398,0.09,0.12,-0.02,0.15
8.408,0.09,0.03,0.10,0.14
8.418,0.08,-0.05,0.22,0.24
8.428,0.08,-0.04,0.25,0.27
8.438,0.08,-0.03,0.19,0.21
8.448,0.11,-0.03,0.05,0.12
8.458,0.17,0.02,-0.11,0.21
8.468,0.15,0.01,-0.16,0.22
8.478,0.10,-0.02,-0.25,0.27
8.488,0.08,0.03,-0.33,0.34
8.498,0.01,0.07,-0.28,0.29
8.507,-0.14,0.20,-0.21,0.32
8.518,-0.18,0.40,-0.33,0.55
8.528,-0.18,0.41,-0.35,0.57
8.538,-0.23,0.28,-0.08,0.38
8.548,-0.24,0.18,-0.07,0.30
8.558,-0.21,0.19,-0.14,0.31
8.567,-0.14,0.17,-0.15,0.27
8.577,-0.05,0.09,-0.23,0.26
8.587,0.08,-0.00,-0.17,0.19
8.597,0.14,-0.13,-0.05,0.20
8.607,0.14,-0.16,-0.05,0.22
8.617,0.10,-0.09,0.08,0.15
8.627,0.06,-0.04,0.26,0.27
8.638,0.05,-0.05,0.27,0.28
8.647,0.01,-0.01,0.14,0.14
8.657,0.01,0.11,-0.06,0.12
8.667,0.01,0.11,-0.06,0.13
8.677,0.05,0.00,0.12,0.13
8.687,0.12,-0.10,0.22,0.27
8.697,0.19,-0.19,0.12,0.29
8.707,0.25,-0.21,-0.01,0.33
8.717,0.24,-0.24,-0.04,0.34
8.727,0.22,-0.30,-0.12,0.39
8.737,0.21,-0.28,-0.14,0.38
8.747,0.07,-0.17,-0.19,0.26
8.757,0.01,-0.02,-0.34,0.34
8.767,0.04,0.05,-0.52,0.53
8.777,0.06,0.02,-0.55,0.56
8.787,0.08,-0.03,-0.45,0.46
8.797,0.09,-0.07,-0.28,0.30
8.807,0.09,-0.13,-0.11,0.20
8.817,0.13,-0.13,-0.09,0.21
8.827,0.18,-0.14,-0.14,0.26
8.837,0.19,-0.15,-0.19,0.31
8.847,0.21,-0.15,-0.10,0.28
8.857,0.19,-0.07,-0.07,0.22
8.867,0.09,0.07,-0.02,0.11
8.877,-0.02,0.28,0.10,0.30
8.887,-0.11,0.35,0.10,0.38
8.897,-0.12,0.35,0.19,0.42
8.907,-0.06,0.29,0.24,0.38
8.917,0.06,0.22,0.26,0.35
8.927,0.17,0.17,0.40,0.46
8.937,0.24,0.12,0.49,0.56
8.947,0.30,0.05,0.46,0.55
8.957,0.33,0.04,0.28,0.43
8.967,0.36,0.07,0.14,0.40
8.977,0.35,0.08,0.10,0.37
8.987,0.31,0.10,0.03,0.33
8.997,0.32,0.17,0.01,0.36
9.007,0.34,0.19,0.07,0.40
9.017,0.37,0.11,0.07,0.40
9.027,0.43,0.03,0.01,0.43
9.037,0.50,0.00,-0.09,0.50
9.047,0.49,-0.05,-0.10,0.50
9.057,0.42,-0.14,-0.08,0.45
9.067,0.38,-0.09,-0.08,0.39
9.077,0.34,0.03,-0.19,0.39
9.087,0.27,0.08,-0.31,0.42
9.097,0.23,0.08,-0.42,0.49
9.107,0.23,0.08,-0.57,0.62
9.117,0.18,0.05,-0.48,0.52
9.127,0.12,-0.00,-0.36,0.38
9.137,0.10,-0.01,-0.39,0.40
9.147,0.06,0.01,-0.18,0.19
9.157,-0.02,-0.03,0.07,0.08
9.167,-0.01,-0.04,0.09,0.09
9.177,-0.01,-0.02,0.05,0.05
9.187,-0.03,-0.02,0.07,0.08
9.196,-0.03,0.03,0.02,0.04
9.206,-0.03,0.03,-0.08,0.09
9.217,-0.08,0.05,-0.07,0.12
9.226,-0.14,0.10,-0.04,0.17
9.237,-0.17,0.12,0.01,0.21
9.247,-0.17,0.13,-0.02,0.21
9.256,-0.15,0.13,-0.08,0.21
9.266,-0.12,0.11,0.00,0.17
9.276,-0.10,0.06,0.10,0.15
9.287,-0.10,-0.01,0.08,0.13
9.296,-0.08,-0.00,0.03,0.09
9.306,-0.10,0.00,0.01,0.10
9.316,-0.12,-0.02,-0.07,0.14
9.326,-0.12,0.01,-0.25,0.28
9.336,-0.15,0.10,-0.40,0.44
9.346,-0.27,0.21,-0.37,0.51
9.356,-0.33,0.26,-0.29,0.51
9.366,-0.28,0.21,-0.23,0.42
9.376,-0.22,0.12,-0.28,0.38
9.386,-0.19,0.06,-0.38,0.43
9.396,-0.17,0.06,-0.54,0.57
9.406,-0.14,0.09,-0.63,0.65
9.416,-0.14,0.10,-0.47,0.50
9.426,-0.14,0.10,-0.27,0.32
9.436,-0.06,0.07,-0.23,0.25
9.446,-0.06,0.01,-0.13,0.14
9.456,-0.06,0.03,-0.06,0.09
9.466,0.08,0.10,-0.20,0.24
9.476,0.17,0.01,-0.27,0.32
9.486,0.23,0.00,-0.31,0.38
9.496,0.30,0.12,-0.44,0.54
9.506,0.32,0.19,-0.42,0.57
9.516,0.30,0.14,-0.34,0.48
9.526,0.33,0.08,-0.38,0.51
9.536,0.38,0.02,-0.43,0.57
9.546,0.34,-0.02,-0.43,0.55
9.556,0.20,-0.05,-0.38,0.44
9.566,-0.01,-0.05,-0.22,0.23
9.576,-0.14,-0.04,-0.24,0.28
9.586,-0.21,-0.14,-0.46,0.52
9.596,-0.23,-0.27,-0.51,0.62
9.606,-0.30,-0.44,-0.55,0.76
9.616,-0.32,-0.51,-0.62,0.87
9.626,-0.26,-0.32,-0.83,0.93
9.636,-0.21,-0.06,-0.83,0.86
9.646,-0.23,-0.09,-0.69,0.73
9.656,-0.28,-0.27,-0.64,0.75
9.666,-0.32,-0.35,-0.49,0.68
9.676,-0.30,-0.49,-0.20,0.61
9.686,-0.24,-0.50,0.06,0.55
9.696,-0.16,-0.53,0.02,0.56
9.706,-0.02,-0.60,-0.20,0.64
9.716,0.23,-0.50,-0.07,0.56
9.726,0.46,-0.58,0.24,0.78
9.736,0.68,-0.80,0.26,1.08
9.746,0.81,-0.98,0.35,1.32
9.756,0.95,-1.15,0.69,1.65
9.766,1.04,-1.48,0.83,1.99
9.776,1.31,-1.56,0.59,2.12
9.786,1.52,-1.40,0.63,2.16
9.796,1.35,-1.13,1.21,2.14
9.806,1.27,-1.05,1.65,2.33
9.816,1.33,-1.07,2.32,2.88
9.826,1.67,-1.04,3.28,3.83
9.836,2.12,-1.14,3.47,4.22
9.846,2.44,-1.51,2.87,4.06
9.856,2.65,-1.80,2.30,3.94
9.866,2.91,-1.97,1.84,3.96
9.876,2.79,-1.97,2.17,4.04
9.885,2.39,-1.89,2.77,4.12
9.896,1.84,-1.52,3.07,3.89
9.905,1.74,-0.06,3.30,3.73
9.916,1.84,0.56,3.04,3.60
9.926,1.71,-0.27,2.63,3.15
9.935,1.62,-0.53,2.64,3.14
9.946,1.50,-0.63,2.86,3.29
9.956,1.11,-0.69,2.38,2.71
9.965,0.76,-0.61,0.93,1.35
9.975,0.76,0.05,0.04,0.76
9.985,0.77,1.17,0.20,1.42
9.996,0.52,1.64,0.81,1.90
10.005,0.27,1.36,1.13,1.79
10.015,0.17,1.27,0.96,1.60
10.025,0.19,0.71,-0.08,0.74
10.035,-0.33,1.02,-1.34,1.72
10.045,-8.25,8.82,-1.11,12.12
10.055,-9.18,8.09,-3.97,12.86
10.065,-2.88,-1.55,-4.40,5.48
10.075,-1.65,1.12,-0.65,2.09
10.085,-0.10,2.41,0.34,2.43
10.095,1.63,-0.66,1.33,2.21
10.105,2.06,-1.77,1.67,3.19
10.115,1.82,-1.30,0.16,2.24
10.125,1.50,-0.88,-1.19,2.11
10.135,1.12,-1.22,-2.56,3.05
10.145,1.54,-1.68,-3.15,3.89
10.155,1.27,-0.62,-2.12,2.55
10.165,-0.21,0.02,-1.17,1.18
10.175,-0.60,0.28,-1.21,1.38
10.185,-0.74,0.33,-1.57,1.77
10.195,-0.81,0.51,-1.63,1.89
10.205,-1.05,0.68,-1.21,1.74
10.215,-1.10,0.77,-1.21,1.80
10.225,-0.90,0.89,-1.74,2.15
10.235,-0.75,0.97,-2.13,2.45
10.245,-0.60,0.91,-2.19,2.45
10.255,-0.42,0.92,-2.11,2.34
10.265,-0.50,1.11,-1.39,1.85
10.275,-0.62,1.16,-0.88,1.58
10.285,-0.51,1.06,-0.63,1.33
10.295,-0.85,0.56,0.99,1.42
10.305,-0.50,0.18,0.33,0.62
10.315,0.95,-0.36,-2.44,2.64
10.325,1.35,-1.33,-0.65,2.00
10.335,1.29,-1.32,0.28,1.87
10.345,1.29,-1.55,0.86,2.20
10.355,0.85,-1.65,1.02,2.12
10.365,0.68,-1.58,0.33,1.75
10.375,1.11,-1.73,-0.49,2.12
10.385,1.43,-2.13,-0.15,2.57
10.395,1.20,-2.04,0.53,2.43
10.405,0.64,-1.68,0.73,1.94
10.415,0.34,-1.68,0.54,1.79
10.425,-0.20,-1.77,0.59,1.87
10.435,-0.80,-1.87,0.22,2.05
10.445,-1.50,-2.37,-0.59,2.87
10.455,-1.73,-2.34,-0.89,3.04
10.465,-1.03,-0.33,-1.48,1.83
10.475,-2.17,0.34,1.90,2.90
10.485,-0.13,5.41,8.43,10.02
10.495,0.52,3.64,7.89,8.70
10.505,0.49,1.10,5.06,5.21
10.515,0.62,0.11,2.98,3.05
10.524,0.87,0.18,2.17,2.35
10.535,0.70,0.33,2.44,2.56
10.545,0.40,0.31,2.81,2.86
10.555,0.19,0.14,3.35,3.36
10.565,-0.09,-0.24,3.79,3.79
10.575,-0.43,-0.52,3.93,3.99
10.584,-0.95,-0.63,4.05,4.20
10.594,-1.48,-0.66,3.96,4.28
10.605,-2.15,-0.88,3.58,4.27
10.614,-2.84,-1.11,3.13,4.37
10.625,-3.50,-1.17,2.90,4.69
10.634,-4.01,-1.01,3.05,5.14
10.644,-4.32,-0.90,3.29,5.50
10.655,-4.48,-1.01,3.34,5.68
10.664,-4.52,-1.06,2.89,5.47
10.675,-4.47,-1.10,2.07,5.05
10.685,-4.17,-0.94,1.09,4.41
10.694,-3.77,-0.49,0.49,3.84
10.704,-3.40,-0.15,0.00,3.40
10.714,-3.13,0.20,-0.25,3.15
10.724,-2.87,0.46,-0.31,2.93
10.734,-2.93,0.98,0.15,3.09
10.744,-2.66,0.90,0.08,2.81
10.754,-2.35,0.88,-0.27,2.53
10.764,-2.13,1.53,-0.86,2.76
10.774,-1.92,1.88,-1.05,2.88
10.784,-1.53,2.27,-1.70,3.22
10.794,-1.15,2.74,-2.03,3.60
10.804,-0.89,3.13,-2.26,3.96
10.814,-0.80,3.09,-2.79,4.24
10.824,-0.52,3.04,-3.07,4.35
10.834,-0.24,3.19,-3.25,4.56
10.844,-0.30,3.03,-3.39,4.55
10.854,-0.27,2.62,-3.66,4.51
10.864,-0.13,2.33,-4.11,4.73
10.874,-0.13,2.32,-4.66,5.21
10.884,0.02,2.68,-4.71,5.42
10.894,0.44,3.33,-4.10,5.30
10.904,0.76,3.50,-3.52,5.02
10.914,0.97,3.22,-3.39,4.78
10.924,1.20,2.90,-3.46,4.67
10.934,1.30,2.68,-3.46,4.56
10.944,1.23,2.62,-3.73,4.72
10.954,1.07,2.55,-4.34,5.15
10.964,0.72,2.43,-4.81,5.44
10.974,0.40,2.65,-4.51,5.25
10.984,0.33,3.23,-3.24,4.59
10.994,0.35,3.53,-1.99,4.07
11.004,0.40,3.28,-1.32,3.56
11.014,0.52,2.95,-1.23,3.24
11.024,0.65,2.67,-1.62,3.19
11.034,0.70,2.65,-2.18,3.50
11.044,0.70,2.59,-2.65,3.77
11.054,0.62,2.23,-2.97,3.76
11.064,0.44,1.79,-3.14,3.64
11.074,0.26,1.33,-3.18,3.46
11.084,0.15,1.13,-2.93,3.14
11.094,0.01,1.11,-2.53,2.77
11.104,-0.07,0.87,-2.28,2.44
11.114,-0.11,0.75,-1.99,2.13
11.124,-0.10,0.92,-1.39,1.67
11.134,-0.03,0.93,-0.31,0.98
11.144,0.11,0.85,0.44,0.96
11.154,0.29,0.55,0.59,0.86
11.164,0.52,0.16,0.53,0.76
11.174,0.69,-0.02,0.57,0.89
11.184,0.76,-0.04,0.58,0.96
11.194,0.74,-0.03,-0.02,0.74
11.204,1.02,-0.33,-1.16,1.58
11.214,1.37,-0.44,-1.61,2.16
11.224,1.60,-0.34,-1.49,2.22
11.234,1.96,-0.24,-1.56,2.52
11.244,2.32,0.02,-1.59,2.82
11.254,2.81,0.33,-1.01,3.01
11.264,3.40,0.90,-0.06,3.51
11.274,3.96,1.49,1.65,4.54
11.284,5.25,4.09,11.44,13.24
11.294,5.17,3.38,8.05,10.15
11.304,4.51,2.69,3.59,6.36
11.314,4.06,0.45,2.04,4.56
11.323,3.20,0.05,1.49,3.53
11.333,2.34,-0.54,0.59,2.47
11.343,0.95,-0.02,0.76,1.21
11.354,-0.35,-0.84,2.69,2.84
11.364,-2.51,-2.12,4.21,5.34
11.373,-4.12,-1.10,4.20,5.98
11.383,-3.47,-1.05,2.47,4.39
11.393,-2.13,-1.06,0.35,2.41
11.403,-1.63,-1.12,-1.13,2.28
11.413,-1.97,-0.60,-2.03,2.90
11.423,-2.60,-0.07,-2.11,3.35
11.433,-3.16,-0.59,-1.10,3.39
11.443,-3.17,0.19,-0.16,3.18
11.453,-3.02,0.70,-0.67,3.17
11.463,-2.58,0.46,-2.20,3.42
11.473,-1.65,-0.22,-4.75,5.04
11.483,0.08,-1.06,-5.15,5.26
11.493,1.02,-0.57,-2.16,2.45
11.503,0.89,2.12,-1.07,2.54
11.513,1.13,1.98,-1.05,2.51
11.523,1.59,2.73,-1.16,3.37
11.533,1.84,2.53,-0.91,3.25
11.543,1.66,2.25,0.08,2.80
11.553,1.90,1.94,0.61,2.78
11.563,2.17,1.94,-0.33,2.92
11.573,2.16,2.38,-0.93,3.35
11.583,2.04,2.43,-0.91,3.30
11.593,2.01,2.03,-0.90,3.00
11.603,1.89,1.40,-0.83,2.50
11.613,1.90,0.79,-0.30,2.08
11.623,2.35,-0.05,0.55,2.42
11.633,2.90,-0.06,0.63,2.96
11.643,3.31,-0.23,0.83,3.42
11.653,3.79,-0.78,1.57,4.18
11.663,4.08,-1.49,2.05,4.80
11.673,3.85,-1.88,2.41,4.91
11.683,3.35,-1.88,2.41,4.53
11.693,2.54,-1.82,1.60,3.51
11.703,2.05,-1.99,0.45,2.89
11.713,1.43,-2.29,-0.93,2.85
11.723,-0.40,-2.86,-2.55,3.85
11.733,-2.33,-3.09,-3.59,5.28
11.743,-3.94,-2.65,-2.87,5.54
11.753,-2.85,-2.27,-2.85,4.63
11.763,-2.15,-1.61,-0.83,2.81
11.773,-1.63,-0.51,0.11,1.71
11.783,-1.34,0.07,-0.33,1.38
11.793,-1.35,0.89,-0.63,1.74
11.803,-1.60,1.60,-0.28,2.28
11.813,-1.58,2.03,-0.42,2.61
11.823,-0.93,2.33,-0.31,2.53
11.833,-0.50,2.88,0.18,2.92
11.843,0.19,2.86,0.63,2.94
11.853,0.90,2.29,0.76,2.58
11.863,1.51,1.31,0.81,2.16
11.873,1.29,-0.46,1.04,1.72
11.882,0.74,-1.30,1.31,1.98
11.893,0.97,-1.81,0.93,2.25
11.903,0.88,-2.34,0.73,2.60
11.913,0.91,-2.71,1.16,3.09
11.923,1.97,-2.19,1.08,3.13
11.933,2.73,-2.14,0.77,3.55
11.943,2.70,-2.18,0.29,3.49
11.952,3.18,-1.40,-1.71,3.87
11.963,2.82,0.26,-2.57,3.82
11.973,2.03,-0.13,-2.57,3.27
11.983,1.36,-0.26,-2.94,3.24
11.993,0.26,-0.99,-1.80,2.06
12.002,-0.77,0.07,-2.31,2.43
12.013,-1.12,0.47,-3.67,3.86
12.022,-0.66,0.70,-1.04,1.42
12.032,0.12,1.34,-1.50,2.01
12.042,-0.19,3.26,-2.74,4.26
12.052,-0.30,4.05,-0.33,4.08
12.062,-0.25,5.28,1.43,5.48
12.073,-0.17,5.94,0.75,5.99
12.082,0.04,4.72,0.83,4.79
12.092,0.40,2.32,0.75,2.47
12.102,0.80,0.08,0.49,0.94
12.112,1.38,-1.35,0.32,1.96
12.122,1.68,-1.64,0.02,2.35
12.132,0.90,-0.22,-1.56,1.81
12.142,2.42,-3.42,-0.94,4.29
12.152,4.74,-4.16,-0.46,6.33
12.162,5.26,-3.09,-1.14,6.20
12.172,2.92,-0.91,-1.76,3.53
12.182,0.43,0.61,-2.44,2.55
12.192,-1.07,1.13,-1.63,2.25
12.202,-2.20,2.50,-0.48,3.37
12.212,-1.52,2.10,-0.21,2.60
12.222,0.37,-0.57,-0.18,0.71
12.232,1.18,-2.43,-0.00,2.70
12.242,0.72,-2.55,0.08,2.65
12.252,-0.38,-1.56,-0.03,1.60
12.262,-2.26,0.19,-0.06,2.27
12.272,-2.83,2.63,-0.59,3.91
12.282,-0.64,2.62,-1.10,2.92
12.292,1.64,1.14,-1.17,2.32
12.302,2.20,0.80,-0.64,2.42
12.312,1.78,1.11,-0.57,2.17
12.322,0.90,1.36,-1.16,2.00
12.332,0.27,1.23,-2.17,2.51
12.342,0.38,0.26,-3.66,3.69
12.352,1.07,-0.00,-2.33,2.57
12.362,1.29,1.56,0.63,2.12
12.372,0.70,2.43,0.85,2.67
12.382,0.75,1.71,0.58,1.95
12.392,0.87,1.40,0.57,1.74
12.402,0.68,1.57,-0.07,1.71
12.412,0.75,1.44,-0.10,1.62
12.422,0.87,1.23,0.98,1.80
12.432,0.13,2.28,1.57,2.77
12.442,-1.77,1.92,2.52,3.63
12.452,-0.29,-0.80,1.68,1.88
12.462,1.35,-2.29,0.29,2.67
12.472,1.30,-2.71,-0.95,3.15
12.482,0.22,-1.73,-1.54,2.33
12.492,0.21,-1.22,-2.46,2.76
12.502,0.34,-0.26,-2.86,2.89
12.512,0.50,0.36,-2.65,2.72
12.522,1.21,0.05,-2.04,2.37
12.532,1.07,0.39,-0.79,1.38
12.542,0.82,1.06,0.12,1.35
12.552,1.22,1.13,-0.19,1.67
12.562,1.51,1.22,-0.73,2.07
12.572,1.60,1.06,-0.94,2.13
12.582,1.79,0.44,-0.90,2.05
12.592,1.95,0.13,-0.91,2.16
12.602,2.10,-0.28,-1.20,2.44
12.612,2.21,-0.59,-1.58,2.78
12.621,2.33,-0.80,-1.80,3.06
12.632,2.35,-0.80,-1.94,3.15
12.641,2.36,-0.78,-1.96,3.16
12.651,2.39,-0.80,-1.89,3.15
12.661,2.43,-0.81,-1.82,3.14
12.672,2.40,-0.62,-1.81,3.07
12.681,2.30,-0.37,-1.81,2.95
12.691,2.28,-0.21,-1.71,2.86
12.701,2.19,-0.10,-1.66,2.75
12.712,2.13,-0.14,-1.60,2.66
12.721,2.21,-0.00,-1.58,2.72
12.731,2.48,-0.07,-2.26,3.35
12.741,2.48,-0.35,-3.25,4.11
12.751,2.22,-0.46,-4.18,4.76
12.761,2.35,-0.32,-4.87,5.42
12.772,2.87,-0.38,-5.09,5.86
12.781,3.35,-0.67,-4.99,6.05
12.791,3.64,-1.07,-4.71,6.05
12.801,3.97,-1.24,-3.95,5.74
12.811,4.26,-1.21,-2.09,4.90
12.821,4.29,-0.58,1.01,4.45
12.831,3.40,1.04,3.89,5.27
12.841,1.38,3.83,6.09,7.33
12.851,-0.03,8.26,4.61,9.46
12.861,-1.73,11.62,0.45,11.76
12.871,-4.94,12.53,-1.30,13.53
12.881,-7.85,8.81,-1.30,11.88
12.891,-7.65,-0.41,0.27,7.66
12.901,-6.33,-5.09,0.95,8.18
12.911,-4.60,-4.97,0.87,6.83
12.921,-2.90,-3.84,0.99,4.92
12.931,-1.74,-2.59,0.83,3.23
12.941,-0.92,-1.45,0.52,1.80
12.951,-0.23,-0.63,0.16,0.69
12.961,0.56,-0.41,-0.32,0.77
12.971,1.30,-0.54,-1.13,1.80
12.981,1.47,0.38,-1.74,2.30
12.991,1.12,1.23,-2.24,2.79
13.001,0.68,1.10,-2.64,2.94
13.011,0.66,0.53,-2.87,2.99
13.021,0.53,-0.49,-2.30,2.41
13.031,0.45,-1.30,-1.62,2.13
13.041,0.70,-1.75,-1.16,2.21
13.051,0.97,-2.15,-1.03,2.57
13.061,1.16,-2.51,-1.25,3.03
13.071,1.40,-2.48,-1.38,3.17
13.081,1.62,-2.30,-1.47,3.18
13.091,1.39,-2.12,-1.74,3.07
13.101,0.78,-1.77,-2.12,2.87
13.111,0.27,-1.33,-2.33,2.69
13.121,0.14,-0.94,-2.23,2.42
13.131,0.21,-0.56,-2.18,2.26
13.141,0.29,-0.02,-1.94,1.97
13.151,0.18,0.64,-1.38,1.54
13.161,-0.04,1.14,-0.80,1.39
13.171,-0.10,1.48,-0.66,1.62
13.181,0.03,1.73,-0.83,1.92
13.191,0.21,1.42,-1.18,1.86
13.201,0.47,0.51,-1.86,1.99
13.211,0.75,-0.44,-2.84,2.97
13.221,1.11,-0.99,-3.98,4.25
13.231,1.42,-1.11,-4.63,4.97
13.241,1.51,-0.55,-4.75,5.01
13.251,2.03,0.71,-4.98,5.43
13.261,3.09,2.53,-4.74,6.19
13.271,4.50,3.64,-4.00,7.03
13.280,5.39,3.72,-2.89,7.15
13.291,5.54,3.67,-1.50,6.81
13.300,5.11,3.49,-0.36,6.20
13.311,4.42,2.95,0.25,5.31
13.320,3.65,2.40,0.58,4.41
13.330,2.71,1.59,0.98,3.30
13.341,1.82,0.95,1.30,2.43
13.351,0.60,0.83,1.36,1.70
13.360,-0.94,0.97,1.63,2.12
13.370,-2.34,0.99,1.85,3.15
13.380,-3.29,0.35,1.52,3.64
13.391,-4.07,-0.24,1.45,4.33
13.400,-4.78,-0.65,1.38,5.02
13.410,-5.44,-0.33,1.40,5.63
13.420,-5.91,0.90,1.72,6.22
13.430,-6.11,2.29,2.35,6.94
13.440,-5.83,3.65,2.97,7.49
13.450,-4.20,3.88,3.47,6.69
13.460,-1.81,1.78,3.68,4.47
13.470,0.16,-0.12,3.48,3.49
13.480,1.58,-1.80,2.90,3.76
13.490,2.30,-2.92,2.04,4.24
13.500,2.56,-3.53,1.56,4.63
13.510,3.15,-3.50,1.35,4.90
13.520,3.74,-2.87,1.33,4.90
13.530,3.88,-2.43,1.51,4.82
13.540,3.90,-2.66,0.77,4.78
13.550,3.67,-2.53,0.14,4.46
13.560,3.29,-2.02,-0.04,3.86
13.570,2.55,-2.36,-0.64,3.53
13.580,1.66,-2.40,-1.09,3.12
13.590,0.58,-1.72,-1.16,2.16
13.600,-0.57,-0.67,-1.50,1.74
13.610,-1.41,0.09,-1.89,2.36
13.620,-1.70,-0.05,-1.89,2.54
13.630,-1.36,-0.78,-1.62,2.26
13.640,-0.70,-1.43,-1.01,1.88
13.650,-0.11,-1.27,-0.13,1.28
13.660,0.37,-1.48,0.57,1.62
13.670,0.65,-2.39,0.86,2.63
13.680,0.98,-2.55,0.32,2.75
13.690,1.25,-0.68,-0.60,1.54
13.700,2.14,1.63,-1.30,2.99
13.710,3.68,3.93,-1.15,5.51
13.720,5.04,6.82,-0.61,8.51
13.730,5.59,7.48,-0.86,9.38
13.740,5.15,5.05,-2.13,7.52
13.750,3.18,1.63,-2.68,4.47
13.760,0.86,-0.66,-2.45,2.68
13.770,-1.53,-1.54,-2.43,3.26
13.780,-3.84,0.06,-1.40,4.09
13.790,-5.17,3.82,1.98,6.73
13.800,-5.63,9.16,6.32,12.47
13.810,-6.49,13.49,6.84,16.46
13.821,-8.09,15.58,3.12,17.83
13.831,-9.58,12.73,1.80,16.04
13.840,-8.07,2.74,2.97,9.02
13.850,-5.86,-3.69,2.40,7.33
13.860,-4.50,-5.90,1.59,7.58
13.870,-3.74,-5.91,1.36,7.12
13.880,-3.55,-5.41,1.10,6.56
13.890,-3.27,-5.12,0.55,6.10
13.899,-1.71,-3.89,0.12,4.25
13.909,0.13,-3.32,-0.42,3.35
13.920,1.05,-2.68,-1.16,3.11
13.930,1.45,-1.21,-1.96,2.72
13.940,1.92,0.08,-2.49,3.14
13.950,2.71,-0.24,-2.67,3.81
13.960,3.34,-1.40,-2.86,4.62
13.970,3.59,-2.80,-2.71,5.30
13.980,3.54,-3.64,-2.67,5.73
13.990,2.86,-4.09,-2.55,5.60
14.000,1.56,-4.41,-2.18,5.16
14.010,0.25,-4.48,-1.98,4.90
14.020,-0.43,-4.04,-1.76,4.43
14.030,-0.72,-3.21,-1.18,3.49
14.040,-0.74,-2.02,-0.74,2.27
14.050,-0.45,-0.53,-0.66,0.96
14.059,-0.06,1.14,-0.54,1.26
14.070,0.23,2.79,-0.60,2.86
14.079,-0.44,3.41,-0.71,3.51
14.089,-1.62,3.16,-1.11,3.72
14.099,-1.69,2.53,-2.15,3.72
14.109,-0.85,1.18,-3.32,3.62
14.119,0.29,-0.66,-3.96,4.03
14.129,1.40,-1.97,-4.42,5.04
14.140,1.96,-2.47,-4.76,5.70
14.149,2.05,-2.47,-4.78,5.76
14.159,2.23,-2.07,-5.07,5.91
14.169,2.49,-0.90,-5.55,6.15
14.179,2.73,1.27,-5.46,6.23
14.189,3.16,3.96,-4.53,6.80
14.199,3.90,5.96,-3.25,7.82
14.209,4.72,6.15,-2.29,8.08
14.219,5.35,4.46,-1.84,7.20
14.229,4.93,2.57,-1.56,5.77
14.239,3.55,0.74,-1.29,3.85
14.249,2.64,-1.10,-1.06,3.05
14.259,2.17,-2.37,-0.78,3.31
14.269,1.96,-3.28,-0.48,3.85
14.279,1.85,-4.02,-0.37,4.44
14.289,1.82,-4.30,-0.30,4.68
14.299,1.72,-3.96,-0.16,4.32
14.309,1.06,-3.29,0.53,3.50
14.319,-0.38,-1.43,1.88,2.39
14.329,-2.52,2.21,3.13,4.59
14.339,-5.70,6.97,4.14,9.91
14.349,-8.69,10.29,4.93,14.34
14.359,-10.44,10.24,4.50,15.30
14.370,-11.51,10.24,2.90,15.67
14.379,-9.42,9.51,2.59,13.64
14.389,-4.99,4.94,3.70,7.94
14.399,-1.88,-0.07,3.93,4.36
14.409,0.11,-2.63,3.78,4.60
14.419,0.86,-2.71,3.42,4.45
14.429,1.11,-2.51,3.46,4.42
14.439,1.99,-0.37,3.32,3.89
14.449,3.37,1.20,2.18,4.19
14.459,4.14,0.79,1.43,4.45
14.469,5.01,0.23,2.92,5.80
14.479,6.56,-0.67,3.04,7.26
14.489,7.39,-3.26,0.54,8.10
14.499,6.96,-5.28,-1.43,8.85
14.509,4.54,-6.09,-1.66,7.78
14.519,2.38,-5.78,-1.45,6.41
14.529,0.72,-5.30,-1.73,5.62
14.539,-0.42,-4.78,-2.06,5.22
14.549,-1.10,-4.25,-2.03,4.84
14.559,-1.66,-3.78,-1.81,4.51
14.569,-2.15,-3.11,-1.33,4.01
14.578,-2.42,-2.57,-0.21,3.54
14.589,-2.42,-1.90,1.00,3.24
14.599,-2.37,-0.86,1.53,2.95
14.609,-2.56,-0.14,1.12,2.80
14.619,-2.34,-0.05,0.09,2.34
14.629,-1.83,0.17,-1.54,2.40
14.639,-1.13,1.53,-2.72,3.32
14.649,-0.03,3.62,-2.43,4.36
14.659,0.79,6.18,-0.81,6.29
14.668,0.78,8.26,1.15,8.38
14.679,1.77,6.35,0.51,6.61
14.689,3.04,1.61,-3.29,4.76
14.699,2.64,-0.34,-3.72,4.57
14.709,1.21,-1.06,-2.13,2.67
14.718,0.17,-0.65,-3.14,3.22
14.728,-1.27,2.18,-0.58,2.58
14.738,-2.25,6.84,3.92,8.20
14.748,-3.72,12.18,6.88,14.48
14.759,-5.42,15.62,5.80,17.52
14.769,-6.70,14.42,2.56,16.10
14.778,-7.24,4.34,2.60,8.83
14.788,-6.54,-3.28,3.76,8.23
14.798,-4.78,-6.12,3.15,8.38
14.808,-3.91,-6.91,2.87,8.44
14.818,-3.93,-6.07,2.55,7.67
14.828,-3.37,-4.41,1.63,5.78
14.838,-2.30,-3.25,0.49,4.01
14.848,-1.18,-1.73,-0.34,2.12
14.858,-0.14,-0.50,-1.27,1.37
14.868,0.48,0.59,-2.10,2.23
14.878,0.89,0.96,-2.81,3.10
14.888,1.24,1.13,-2.97,3.40
14.898,1.54,1.30,-2.23,3.00
14.908,1.44,0.57,-1.25,2.00
14.918,1.33,-0.69,-1.34,2.01
14.928,1.35,-2.34,-2.09,3.42
14.938,1.00,-3.49,-1.84,4.07
14.948,0.25,-3.80,-0.82,3.90
14.958,-0.56,-3.49,-0.01,3.53
14.968,-0.98,-3.26,0.21,3.41
14.978,-1.50,-3.48,0.19,3.79
14.988,-1.76,-3.27,0.12,3.72
14.998,-1.85,-2.59,0.29,3.20
15.008,-2.11,-2.10,-0.05,2.98
15.018,-2.71,-1.90,-0.69,3.38
15.028,-3.34,-1.58,-1.29,3.92
15.038,-3.14,-0.65,-2.17,3.88
15.048,-1.99,0.44,-3.10,3.71
15.058,-0.83,0.61,-3.69,3.83
15.068,0.13,-0.33,-4.43,4.45
15.078,1.05,-1.46,-5.25,5.55
15.088,2.25,-1.81,-6.23,6.86
15.098,3.62,-1.98,-7.14,8.24
15.108,5.07,-1.76,-7.25,9.02
15.118,6.31,-0.73,-5.92,8.68
15.128,7.02,1.16,-4.21,8.27
15.138,7.50,2.89,-3.27,8.68
15.148,7.60,3.74,-3.42,9.13
15.158,7.13,3.57,-3.98,8.91
15.168,6.42,2.83,-4.04,8.10
15.178,5.68,1.99,-3.23,6.83
15.188,4.95,0.99,-1.73,5.34
15.198,4.33,0.09,-0.38,4.35
15.208,4.31,-0.57,0.29,4.36
15.218,4.23,-1.10,0.52,4.40
15.228,3.24,-0.80,0.84,3.44
15.238,2.01,0.83,1.29,2.53
15.248,0.06,3.11,2.11,3.76
15.258,-2.46,6.20,3.32,7.45
15.268,-5.76,8.78,4.94,11.61
15.278,-8.98,8.69,6.48,14.08
15.288,-10.56,6.21,6.12,13.69
15.297,-10.60,5.63,4.38,12.78
15.308,-9.25,7.37,3.75,12.41
15.318,-6.61,6.61,3.72,10.06
15.328,-3.90,4.30,3.68,6.88
15.338,-2.07,1.45,3.55,4.36
15.348,-0.76,-1.68,3.44,3.91
15.358,0.06,-4.35,3.24,5.42
15.368,0.53,-4.25,3.25,5.38
15.378,1.11,-3.05,3.11,4.50
15.388,2.49,-2.10,2.41,4.05
15.397,4.36,-0.94,2.44,5.08
15.408,6.31,0.19,3.09,7.03
15.417,7.58,-1.42,2.07,7.98
15.427,7.82,-4.14,0.25,8.86
15.437,7.31,-6.68,-0.49,9.92
15.447,5.20,-8.36,-0.26,9.85
15.457,2.28,-7.69,-0.40,8.03
15.467,-0.32,-5.90,-0.64,5.94
15.477,-1.78,-4.77,-1.04,5.20
15.487,-2.03,-4.22,-1.52,4.93
15.497,-1.75,-3.68,-1.72,4.42
15.507,-1.79,-2.56,-1.56,3.49
15.517,-2.09,-1.23,-1.07,2.65
15.527,-2.15,-0.26,-0.23,2.18
15.537,-2.05,0.42,0.52,2.16
15.547,-2.32,1.03,0.52,2.59
15.557,-2.19,1.47,0.13,2.64
15.567,-1.46,1.60,-0.40,2.20
15.577,-0.63,2.72,-1.10,3.00
15.587,0.45,4.68,-1.45,4.92
15.597,1.87,6.55,-0.80,6.86
15.607,2.50,7.18,0.81,7.65
15.617,2.14,7.01,1.78,7.54
15.627,2.13,4.03,-1.01,4.67
15.637,1.79,0.95,-3.85,4.35
15.647,0.73,-1.03,-3.47,3.69
15.657,-0.17,-2.20,-3.33,3.99
15.667,-0.64,-1.75,-2.61,3.21
15.677,-1.47,0.71,1.25,2.06
15.687,-2.58,4.48,5.85,7.81
15.697,-4.15,8.68,7.56,12.24
15.707,-5.87,12.88,4.60,14.88
15.717,-7.24,14.96,2.36,16.79
15.727,-7.12,9.37,4.42,12.57
15.737,-5.55,0.56,5.01,7.50
15.747,-4.43,-3.55,3.65,6.75
15.757,-3.84,-5.65,2.38,7.23
15.767,-3.68,-6.11,1.56,7.30
15.777,-3.48,-4.82,1.21,6.06
15.787,-2.43,-3.50,0.83,4.35
15.797,-0.36,-1.95,-0.28,2.00
15.807,1.08,-0.84,-1.68,2.17
15.817,1.25,0.04,-2.79,3.05
15.827,1.48,1.20,-3.72,4.18
15.837,2.02,1.20,-3.52,4.23
15.847,2.18,-0.17,-2.80,3.55
15.857,2.42,-1.80,-2.99,4.25
15.867,2.68,-3.03,-3.10,5.09
15.877,2.19,-3.77,-2.64,5.09
15.887,0.90,-3.96,-1.98,4.52
15.897,-0.48,-4.07,-0.94,4.21
15.907,-1.55,-3.99,-0.16,4.28
15.917,-1.94,-3.44,-0.01,3.95
15.927,-1.76,-3.09,-0.17,3.56
15.937,-1.39,-3.01,0.00,3.31
15.947,-1.12,-2.87,0.04,3.08
15.957,-1.19,-2.53,-0.60,2.86
15.967,-1.32,-1.60,-0.89,2.26
15.977,-1.62,-0.18,-1.15,2.00
15.987,-1.42,1.21,-1.94,2.69
15.996,-0.41,1.77,-2.77,3.32
16.007,0.61,1.56,-2.93,3.37
16.017,1.23,0.84,-2.67,3.06
16.027,1.69,0.33,-2.79,3.28
16.037,2.03,0.29,-3.58,4.13
16.047,2.51,-0.23,-5.09,5.68
16.056,2.94,-0.90,-6.31,7.01
16.067,3.18,-0.80,-5.67,6.55
16.077,3.54,0.20,-4.31,5.58
16.087,4.02,1.54,-3.33,5.44
16.096,4.62,2.34,-3.00,5.98
16.106,4.92,1.98,-3.03,6.11
16.116,4.80,1.28,-2.91,5.76
16.126,4.48,0.73,-2.13,5.01
16.136,4.07,0.05,-1.35,4.29
16.147,3.42,-1.17,-1.04,3.76
16.156,2.53,-2.57,-0.54,3.65
16.167,1.66,-3.26,0.34,3.67
16.176,1.33,-3.15,0.88,3.53
16.186,1.26,-2.89,1.23,3.38
16.196,0.75,-0.95,2.28,2.58
16.206,-0.15,3.52,3.86,5.23
16.216,-2.19,7.92,6.06,10.21
16.226,-4.46,10.81,7.64,13.96
16.237,-6.30,9.95,6.48,13.44
16.246,-8.06,9.79,3.11,13.06
16.256,-7.70,11.66,2.55,14.21
16.266,-4.51,7.91,3.00,9.59
16.276,-1.46,3.21,2.62,4.39
16.286,0.24,-0.87,1.92,2.12
16.296,0.28,-2.94,1.78,3.44
16.306,0.53,-2.57,1.92,3.25
16.316,1.17,-2.43,2.15,3.45
16.326,1.53,-2.33,2.61,3.82
16.336,2.37,-0.63,3.14,3.99
16.346,4.00,0.72,2.94,5.01
16.356,5.08,0.27,1.32,5.25
16.366,5.79,-1.36,-0.17,5.95
16.376,5.79,-3.77,-0.52,6.93
16.386,4.54,-5.60,-0.53,7.23
16.396,2.56,-5.74,-1.16,6.39
16.406,0.69,-5.31,-1.57,5.57
16.416,-0.48,-5.03,-1.74,5.35
16.426,-0.84,-5.12,-1.69,5.46
16.436,-0.81,-5.32,-1.30,5.53
16.446,-0.79,-5.14,-0.82,5.26
16.456,-0.84,-4.63,-0.27,4.71
16.466,-0.93,-3.72,0.66,3.89
16.476,-1.17,-2.46,1.69,3.21
16.486,-1.29,-1.55,1.78,2.69
16.496,-1.42,-0.13,1.24,1.89
16.506,-1.61,2.25,0.52,2.82
16.516,-1.04,4.75,-0.35,4.87
16.526,0.20,7.36,-1.25,7.47
16.536,1.25,9.46,-1.03,9.59
16.546,1.56,10.03,0.35,10.16
16.556,1.65,5.93,0.32,6.17
16.566,1.27,0.76,-2.13,2.59
16.576,0.27,-0.72,-3.59,3.67
16.586,-0.74,-1.41,-3.00,3.39
16.596,-0.86,-1.33,-3.30,3.66
16.606,-0.70,-0.69,-2.46,2.65
16.616,-1.47,1.10,0.26,1.86
16.626,-2.01,3.81,2.68,5.08
16.636,-3.46,6.80,4.74,8.98
16.646,-5.45,10.76,3.88,12.67
16.656,-7.84,14.40,3.33,16.73
16.666,-8.96,13.31,5.97,17.12
16.675,-6.64,4.10,6.28,10.02
16.686,-4.26,-2.37,3.78,6.17
16.696,-3.46,-5.31,1.94,6.63
16.706,-2.98,-6.49,1.08,7.23
16.716,-2.74,-6.23,1.22,6.92
16.726,-1.99,-5.23,0.93,5.68
16.736,-0.12,-4.23,0.23,4.23
16.746,1.13,-3.23,-0.47,3.46
16.755,1.41,-0.70,-1.08,1.91
16.766,1.37,1.08,-2.14,2.76
16.776,1.23,0.41,-2.58,2.89
16.786,1.07,-1.22,-2.32,2.83
16.796,1.20,-2.39,-2.63,3.75
16.806,1.11,-3.05,-2.77,4.27
16.815,0.25,-3.52,-2.36,4.25
16.825,-0.94,-3.53,-1.57,3.98
16.835,-1.47,-3.30,-0.98,3.74
16.845,-1.23,-2.82,-0.54,3.13
16.855,-1.18,-2.93,-0.62,3.22
16.865,-1.16,-3.11,-0.98,3.47
16.875,-1.16,-3.00,-1.39,3.51
16.885,-1.16,-2.57,-1.65,3.27
16.895,-1.15,-1.62,-1.69,2.61
16.906,-1.23,0.05,-1.40,1.86
16.915,-1.11,1.94,-1.40,2.64
16.925,-0.66,3.19,-1.73,3.69
16.935,-0.08,3.62,-2.29,4.28
16.945,0.56,3.37,-2.57,4.28
16.955,1.17,2.42,-2.05,3.38
16.965,1.57,0.78,-1.51,2.31
16.975,1.74,-0.82,-1.72,2.58
16.985,1.62,-1.84,-2.92,3.82
16.995,1.47,-2.26,-4.55,5.29
17.005,1.62,-2.47,-5.89,6.59
17.015,2.31,-1.61,-6.31,6.91
17.025,3.26,0.53,-6.05,6.90
17.035,4.09,2.41,-5.58,7.33
17.045,4.70,2.91,-4.67,7.24
17.055,5.18,2.56,-3.69,6.85
17.065,5.70,2.46,-2.67,6.76
17.075,5.70,2.49,-1.48,6.39
17.085,5.09,2.22,-0.65,5.59
17.095,4.53,1.13,-0.36,4.69
17.105,4.37,-0.11,0.01,4.37
17.115,3.89,-0.88,0.48,4.02
17.125,2.90,-1.20,0.94,3.28
17.135,2.01,-0.73,1.02,2.37
17.145,0.90,0.05,1.43,1.69
17.155,-0.54,0.97,2.10,2.38
17.165,-2.48,2.43,2.87,4.50
17.175,-5.38,4.03,3.66,7.65
17.185,-7.92,4.78,3.88,10.03
17.195,-9.11,4.58,2.92,10.61
17.205,-9.33,5.15,1.84,10.81
17.215,-7.97,5.95,2.20,10.19
17.225,-5.63,5.28,3.02,8.29
17.235,-3.23,3.59,3.57,6.01
17.245,-1.19,1.16,3.80,4.15
17.255,0.15,-1.48,3.81,4.09
17.265,0.91,-3.32,3.66,5.02
17.275,1.43,-3.04,3.68,4.98
17.285,1.96,-1.62,3.48,4.31
17.295,3.02,-0.89,2.62,4.10
17.305,4.19,-0.53,2.35,4.83
17.315,4.96,-0.69,2.51,5.60
17.325,5.94,-1.97,1.85,6.53
17.335,6.75,-4.12,0.27,7.91
17.345,6.55,-6.73,-1.10,9.45
17.355,4.85,-7.92,-1.36,9.39
17.365,2.24,-6.78,-1.31,7.26
17.374,0.23,-5.38,-1.62,5.63
17.385,-0.93,-4.45,-2.09,5.01
17.395,-1.67,-3.61,-2.23,4.56
17.405,-2.18,-2.54,-2.05,3.92
17.415,-2.60,-1.40,-1.55,3.34
17.425,-2.83,-0.09,-0.47,2.87
17.434,-2.53,1.30,0.99,3.01
17.444,-2.07,2.35,1.35,3.41
17.455,-1.94,2.57,0.85,3.33
17.465,-1.91,2.07,-0.10,2.82
17.474,-1.66,0.96,-1.60,2.49
17.485,-1.25,-0.07,-2.36,2.68
17.494,-0.99,0.21,-1.75,2.02
17.505,-0.38,1.35,-1.44,2.02
17.514,0.39,3.41,-0.78,3.52
17.525,1.55,4.89,-1.03,5.23
17.534,2.54,3.72,-2.89,5.35
17.544,2.31,1.34,-5.04,5.70
17.554,1.12,-0.01,-4.26,4.40
17.564,-0.65,0.21,-3.24,3.31
17.574,-2.61,2.27,-2.02,4.01
17.584,-3.19,6.30,1.17,7.15
17.594,-3.04,10.50,4.90,11.98
17.604,-4.17,12.49,6.39,14.64
17.615,-5.88,12.57,5.29,14.85
17.624,-6.38,7.96,4.79,11.27
17.634,-5.54,0.69,4.91,7.44
17.644,-4.02,-2.80,4.41,6.59
17.654,-2.09,-4.07,3.45,5.73
17.664,-0.92,-4.26,2.64,5.10
17.674,-0.63,-3.55,1.60,3.95
17.684,-0.69,-2.10,0.70,2.32
17.694,-0.79,-1.22,-0.20,1.46
17.704,-0.86,-0.71,-0.64,1.29
17.714,-0.98,-0.17,-1.15,1.52
17.724,-1.37,0.37,-1.59,2.13
17.734,-1.52,-0.00,-1.99,2.51
17.744,-1.33,-0.34,-1.96,2.39
17.754,-1.21,-0.69,-1.67,2.18
17.764,-1.14,-1.28,-1.66,2.39
17.774,-0.94,-1.98,-1.84,2.86
17.784,-0.17,-2.48,-2.04,3.21
17.794,0.52,-3.32,-1.87,3.85
17.804,0.89,-4.08,-1.48,4.43
17.814,1.18,-4.20,-1.13,4.51
17.824,0.98,-4.54,-1.10,4.77
17.834,0.80,-4.70,-1.16,4.90
17.844,0.53,-4.79,-1.42,5.03
17.854,0.31,-4.01,-1.38,4.25
17.864,-0.13,-2.88,-0.91,3.02
17.874,-0.93,-1.66,-0.48,1.96
17.884,-1.78,-0.48,-0.47,1.90
17.894,-2.40,0.45,-1.04,2.65
17.904,-2.32,1.77,-1.28,3.19
17.914,-1.57,3.00,-0.84,3.48
17.924,-0.78,3.10,-0.18,3.20
17.934,0.01,1.75,-0.07,1.75
17.944,0.99,0.77,-0.82,1.50
17.954,1.72,0.30,-2.35,2.93
17.964,2.47,-0.33,-4.34,5.00
17.974,3.51,-0.78,-5.75,6.78
17.984,4.71,-0.48,-5.95,7.60
17.994,5.75,0.45,-5.54,7.99
18.004,6.37,1.38,-5.08,8.27
18.014,6.27,1.46,-4.39,7.79
18.024,5.57,0.78,-3.55,6.65
18.034,4.71,0.28,-2.75,5.46
18.044,3.88,0.20,-1.79,4.27
18.054,3.40,0.03,-0.85,3.50
18.064,3.07,-0.48,-0.03,3.11
18.074,2.75,-0.94,0.45,2.94
18.083,2.25,-0.86,0.69,2.51
18.094,1.48,-0.08,0.74,1.66
18.103,0.45,1.12,1.09,1.63
18.114,-1.19,2.85,2.31,3.86
18.124,-2.85,3.95,3.13,5.79
18.134,-4.58,4.30,4.05,7.47
18.144,-6.73,4.47,4.58,9.28
18.153,-8.47,4.95,4.52,10.80
18.163,-9.55,5.29,3.31,11.41
18.173,-9.24,7.23,1.81,11.87
18.184,-6.72,8.02,1.68,10.60
18.193,-3.56,6.01,2.36,7.38
18.204,-1.09,3.54,3.54,5.12
18.214,0.58,0.79,4.31,4.42
18.223,1.89,-0.97,4.46,4.94
18.233,3.16,-1.15,4.33,5.48
18.243,3.27,-1.41,4.45,5.70
18.253,2.93,-1.50,3.88,5.09
18.263,3.15,-1.10,3.00,4.48
18.273,4.39,-0.89,2.66,5.21
18.283,5.55,-1.67,1.70,6.04
18.293,5.82,-3.43,0.02,6.75
18.303,5.82,-5.33,-1.17,7.97
18.313,4.51,-7.29,-1.49,8.70
18.323,2.17,-7.58,-1.49,8.02
18.333,-0.12,-6.22,-1.42,6.38
18.343,-1.60,-5.05,-1.52,5.51
18.353,-1.96,-4.17,-1.56,4.86
18.363,-1.63,-3.34,-1.32,3.94
18.373,-1.43,-2.58,-0.92,3.08
18.383,-1.65,-1.48,-0.23,2.23
18.393,-2.04,-0.46,0.73,2.22
18.403,-2.19,0.11,1.48,2.64
18.413,-2.16,0.03,1.57,2.68
18.423,-1.71,0.02,1.13,2.05
18.433,-1.16,0.51,1.13,1.70
18.443,-0.58,0.76,0.76,1.22
18.453,-0.38,1.23,-0.42,1.35
18.463,0.09,2.50,-1.69,3.02
18.473,1.69,3.60,-2.23,4.56
18.483,3.61,4.77,-1.55,6.18
18.493,4.47,5.83,-0.12,7.35
18.503,4.27,5.14,-1.30,6.81
18.513,3.08,1.88,-5.06,6.21
18.523,1.91,-0.39,-4.85,5.23
18.533,1.47,-1.64,-4.80,5.28
18.543,0.87,-1.84,-4.16,4.63
18.553,-0.11,-0.25,-0.80,0.84
18.563,-0.41,2.96,3.03,4.26
18.573,-0.66,7.36,7.14,10.28
18.583,-2.91,12.47,7.45,14.82
18.593,-5.79,17.11,3.69,18.44
18.604,-8.78,17.90,3.10,20.18
18.613,-8.28,6.86,5.54,12.09
18.623,-5.83,-3.18,5.20,8.43
18.633,-4.54,-7.11,3.66,9.19
18.643,-4.26,-8.04,2.80,9.52
18.653,-3.84,-7.72,1.45,8.75
18.663,-3.38,-6.20,0.28,7.07
18.673,-2.18,-4.03,-0.00,4.59
18.683,-0.74,-2.07,-0.14,2.20
18.693,0.23,0.66,-0.65,0.95
18.703,0.56,1.56,-1.54,2.27
18.713,0.28,1.01,-2.12,2.36
18.723,-0.36,-0.07,-1.69,1.73
18.732,-0.84,-1.16,-1.07,1.79
18.743,-1.06,-1.98,-1.15,2.52
18.753,-0.69,-2.63,-1.57,3.14
18.763,-0.21,-3.25,-1.59,3.62
18.773,-0.21,-4.01,-1.08,4.16
18.783,-0.41,-3.65,-0.41,3.70
18.793,-0.66,-2.57,-0.21,2.66
18.803,-0.71,-1.71,-0.32,1.88
18.813,-0.73,-1.28,-0.33,1.51
18.822,-0.89,-1.07,-0.58,1.50
18.832,-1.07,-0.81,-0.99,1.67
18.843,-1.57,-0.96,-1.39,2.31
18.852,-2.01,-0.94,-1.63,2.75
18.863,-1.86,-0.24,-1.80,2.60
18.872,-0.91,0.82,-1.90,2.26
18.882,0.17,1.32,-2.02,2.42
18.892,0.87,1.04,-1.84,2.29
18.902,1.40,0.38,-1.68,2.22
18.912,1.92,-0.40,-1.95,2.76
18.923,2.19,-1.05,-2.56,3.53
18.932,2.36,-1.81,-4.14,5.10
18.942,2.83,-2.79,-6.38,7.51
18.952,3.77,-2.78,-7.30,8.67
18.962,4.81,-1.41,-6.50,8.20
18.972,5.64,0.33,-5.01,7.55
18.982,6.21,1.55,-3.56,7.32
18.992,6.49,1.94,-2.91,7.37
19.002,6.17,1.96,-2.72,7.02
19.012,5.33,2.35,-2.31,6.27
19.022,4.50,2.92,-1.51,5.57
19.032,4.28,2.88,-0.91,5.23
19.042,4.14,1.91,-0.47,4.59
19.052,3.42,0.76,-0.11,3.51
19.062,2.90,0.52,0.24,2.95
19.072,2.07,0.68,0.65,2.28
19.082,0.92,1.01,1.06,1.73
19.092,-0.35,0.73,1.40,1.62
19.102,-1.50,0.19,2.07,2.56
19.112,-3.18,0.15,3.10,4.44
19.122,-5.38,0.86,3.47,6.46
19.132,-7.71,2.52,3.58,8.86
19.142,-9.72,4.73,2.97,11.21
19.152,-11.01,6.99,1.77,13.16
19.162,-9.05,7.80,1.40,12.03
19.172,-4.94,5.44,2.22,7.68
19.182,-2.02,2.56,3.21,4.58
19.192,0.13,0.78,4.06,4.14
19.202,1.71,-0.40,4.02,4.39
19.212,2.57,-1.06,3.86,4.75
19.222,2.89,-0.94,3.99,5.02
19.232,3.12,-0.01,3.71,4.85
19.242,4.05,0.22,2.53,4.79
19.252,4.83,-0.39,1.93,5.21
19.262,5.44,-0.29,2.21,5.88
19.272,5.76,-1.37,1.48,6.10
19.282,5.40,-3.30,0.03,6.33
19.292,4.41,-4.87,-0.91,6.63
19.302,2.57,-5.64,-0.95,6.27
19.312,0.37,-5.12,-0.74,5.19
19.322,-1.49,-3.92,-0.82,4.28
19.332,-2.35,-2.74,-1.08,3.77
19.342,-2.13,-1.71,-1.27,3.01
19.352,-1.35,-1.33,-1.07,2.18
19.362,-0.65,-1.51,-0.43,1.70
19.372,-0.44,-1.67,0.41,1.77
19.382,-1.03,-1.18,1.20,1.97
19.392,-1.67,-0.93,1.44,2.39
19.402,-1.87,-0.64,1.35,2.39
19.412,-1.50,-0.65,1.30,2.09
19.422,-1.13,-0.52,1.24,1.76
19.431,-0.84,0.54,0.17,1.01
19.442,-0.19,2.22,-0.95,2.42
19.451,1.38,3.58,-1.38,4.07
19.462,2.62,4.11,-0.60,4.91
19.471,2.58,3.27,-0.02,4.16
19.482,1.64,2.17,-2.14,3.47
19.492,1.04,0.87,-4.38,4.59
19.501,0.80,-1.11,-3.85,4.08
19.512,0.57,-2.34,-3.82,4.51
19.522,-0.08,-1.05,-2.29,2.52
19.532,-0.96,3.38,1.70,3.90
19.541,-1.42,10.74,5.52,12.16
19.551,-2.75,16.48,4.39,17.27
19.562,-4.40,17.73,1.87,18.36
19.572,-6.38,11.34,1.67,13.11
19.581,-7.52,1.30,3.06,8.22
19.591,-6.30,-4.48,3.71,8.58
19.601,-4.40,-6.74,3.44,8.76
19.611,-3.03,-7.63,3.16,8.79
19.621,-2.15,-6.57,1.72,7.12
19.631,-1.21,-4.21,0.59,4.42
19.641,-0.03,-2.58,0.14,2.59
19.651,1.42,-1.07,-0.35,1.81
19.661,2.35,-0.40,-0.49,2.44
19.671,1.71,-0.10,-1.06,2.02
19.681,0.23,0.49,-1.71,1.79
19.691,-0.62,0.51,-1.80,1.97
19.701,-0.73,0.01,-1.31,1.51
19.711,-0.78,-0.47,-1.67,1.90
19.721,-0.81,-1.19,-2.16,2.59
19.731,-0.57,-2.03,-2.14,3.01
19.741,-0.23,-2.11,-1.40,2.54
19.751,0.07,-1.76,-0.62,1.87
19.761,0.47,-1.63,-0.45,1.75
19.771,0.75,-1.86,-0.45,2.06
19.781,0.73,-2.41,-0.64,2.60
19.791,0.28,-2.72,-1.03,2.92
19.801,-0.25,-2.17,-1.23,2.51
19.811,-0.86,-1.71,-1.44,2.40
19.821,-1.25,-1.63,-1.58,2.59
19.831,-1.67,-1.52,-1.67,2.81
19.841,-1.87,-0.65,-1.77,2.66
19.851,-1.52,0.65,-1.77,2.42
19.861,-0.97,1.53,-1.74,2.51
19.871,-0.46,1.73,-1.73,2.49
19.881,-0.01,1.37,-1.60,2.10
19.891,0.30,0.76,-1.48,1.69
19.901,0.51,0.26,-1.78,1.87
19.911,0.69,-0.38,-2.89,2.99
19.921,1.00,-1.32,-4.95,5.22
19.931,1.77,-2.13,-6.92,7.46
19.941,2.77,-2.32,-7.34,8.19
19.951,3.48,-1.62,-6.17,7.26
19.961,3.96,-0.56,-4.73,6.19
19.971,4.20,0.22,-3.60,5.54
19.981,3.86,0.75,-2.27,4.54
19.991,3.10,1.29,-0.99,3.51
20.001,2.83,1.68,-0.18,3.30
20.011,3.04,1.66,0.09,3.46
20.021,3.32,1.16,0.17,3.52
20.031,3.18,0.73,0.37,3.28
20.041,2.57,1.00,0.95,2.91
20.050,1.50,2.12,2.08,3.32
20.061,0.06,2.79,2.91,4.04
20.071,-1.25,2.45,3.00,4.07
20.081,-2.92,2.14,3.36,4.94
20.091,-5.03,2.61,3.02,6.42
20.101,-7.40,4.09,2.35,8.78
20.111,-9.25,5.79,1.51,11.01
20.120,-9.63,7.02,0.92,11.95
20.131,-7.42,6.07,1.69,9.73
20.141,-4.57,4.13,2.91,6.82
20.150,-2.31,2.23,3.85,5.01
20.161,-0.29,0.17,4.33,4.34
20.170,1.04,-1.89,4.24,4.76
20.180,1.72,-2.75,3.85,5.03
20.191,2.16,-2.43,3.50,4.78
20.200,3.11,-1.39,2.97,4.52
20.211,4.39,-0.68,2.11,4.92
20.221,5.19,-1.19,1.53,5.54
20.230,5.83,-1.34,1.82,6.26
20.240,6.16,-2.36,1.22,6.71
20.250,5.94,-4.15,-0.02,7.25
20.260,5.44,-5.40,-0.91,7.72
20.270,4.16,-5.79,-1.02,7.20
20.280,2.17,-5.47,-0.84,5.94
20.290,0.46,-4.48,-1.20,4.66
20.300,-0.50,-3.69,-1.67,4.08
20.310,-1.05,-2.93,-1.88,3.63
20.320,-1.78,-2.31,-1.69,3.37
20.330,-2.35,-1.58,-1.33,3.13
20.340,-2.51,-0.88,-0.41,2.69
20.350,-2.25,-0.45,1.04,2.52
20.360,-1.74,0.15,2.01,2.66
20.370,-1.43,0.48,2.22,2.68
20.380,-1.31,0.48,1.94,2.39
20.390,-1.37,0.75,1.16,1.94
20.400,-1.54,1.63,-0.37,2.27
20.410,-0.78,2.40,-2.24,3.37
20.420,0.93,3.37,-2.95,4.58
20.430,2.43,4.28,-2.54,5.54
20.440,3.23,4.63,-2.07,6.02
20.450,3.65,2.86,-2.86,5.45
20.460,3.31,0.62,-4.60,5.70
20.470,2.16,-0.88,-3.95,4.58
20.480,0.57,-1.38,-3.11,3.45
20.490,-1.41,0.38,-2.09,2.55
20.500,-2.99,4.74,0.78,5.66
20.510,-3.68,11.12,4.12,12.41
20.520,-4.15,16.08,6.13,17.70
20.531,-4.07,15.83,6.65,17.65
20.540,-5.12,7.45,5.20,10.43
20.550,-6.59,-1.37,4.54,8.12
20.560,-5.48,-4.21,4.12,8.04
20.570,-3.64,-5.18,3.21,7.10
20.580,-2.74,-5.66,2.31,6.70
20.590,-2.44,-4.90,1.58,5.69
20.600,-2.10,-3.28,0.80,3.97
20.610,-1.58,-1.75,0.06,2.35
20.620,-1.07,-0.48,-0.29,1.20
20.630,-0.68,0.53,-0.76,1.15
20.640,-0.67,1.18,-1.51,2.03
20.650,-0.72,1.13,-2.13,2.52
20.660,-0.68,0.86,-1.89,2.18
20.670,-0.82,0.30,-1.13,1.43
20.680,-1.06,-0.51,-0.87,1.47
20.690,-0.82,-1.21,-1.28,1.94
20.700,-0.14,-1.99,-1.59,2.55
20.710,0.04,-3.07,-1.17,3.29
20.720,-0.09,-3.45,-0.46,3.48
20.730,-0.24,-3.44,-0.35,3.46
20.740,-0.15,-3.33,-0.85,3.44
20.750,-0.08,-3.13,-0.59,3.18
20.760,0.13,-2.77,-0.30,2.79
20.770,-0.05,-2.66,-0.18,2.66
20.780,-0.43,-2.28,-0.48,2.37
20.790,-0.71,-1.44,-0.90,1.85
20.800,-1.15,-0.34,-1.40,1.85
20.810,-1.44,0.44,-1.75,2.31
20.819,-1.21,0.68,-1.83,2.29
20.830,-0.59,0.65,-1.65,1.87
20.840,0.13,0.43,-1.53,1.59
20.850,0.75,-0.21,-1.76,1.92
20.860,1.46,-0.75,-2.62,3.09
20.869,2.25,-1.09,-3.89,4.63
20.880,3.08,-1.49,-5.47,6.45
20.889,4.06,-1.27,-6.28,7.58
20.899,5.01,-0.37,-5.81,7.68
20.909,5.52,0.79,-4.69,7.29
20.919,5.79,1.76,-3.62,7.05
20.929,5.86,2.26,-3.04,6.98
20.939,5.46,2.17,-2.56,6.41
20.949,4.57,1.67,-1.79,5.18
20.959,3.87,0.89,-0.97,4.09
20.969,3.65,-0.02,-0.53,3.69
20.979,3.30,-0.79,-0.23,3.40
20.989,2.72,-0.93,0.26,2.89
20.999,2.13,-0.26,0.54,2.21
21.009,1.24,0.67,0.76,1.59
21.019,-0.14,1.64,1.32,2.11
21.029,-1.62,2.61,1.71,3.51
21.039,-3.10,3.43,2.45,5.24
21.049,-4.76,3.40,3.15,6.64
21.059,-6.79,3.27,3.68,8.38
21.069,-8.72,3.96,3.76,10.29
21.079,-9.98,5.12,2.70,11.54
21.089,-9.95,6.39,1.30,11.90
21.099,-7.17,5.70,1.07,9.22
21.109,-3.67,3.45,1.49,5.25
21.119,-0.65,1.62,2.59,3.13
21.129,1.55,0.02,3.83,4.14
21.139,3.06,-0.57,4.14,5.18
21.149,4.36,0.15,4.08,5.98
21.159,5.24,0.88,3.98,6.64
21.170,5.92,1.08,3.58,7.00
21.179,6.45,0.70,2.74,7.04
21.189,6.55,-0.19,2.42,6.98
21.199,6.12,-1.85,2.11,6.73
21.209,5.50,-3.71,0.87,6.69
21.219,4.77,-5.76,-0.14,7.48
21.229,3.18,-6.88,-0.20,7.58
21.239,1.25,-6.40,-0.13,6.52
21.249,-0.56,-4.98,-0.71,5.06
21.259,-1.88,-3.48,-1.39,4.19
21.269,-2.57,-2.17,-2.01,3.92
21.279,-2.72,-1.11,-2.14,3.64
21.289,-2.86,-0.47,-1.62,3.32
21.299,-2.78,-0.41,-0.78,2.91
21.309,-2.38,-0.76,0.31,2.52
21.319,-1.91,-0.71,1.20,2.36
21.329,-1.81,-0.71,1.54,2.48
21.339,-1.62,-0.50,1.25,2.11
21.349,-1.00,-0.32,1.07,1.50
21.359,-0.31,-0.12,1.06,1.11
21.369,0.31,0.11,0.19,0.38
21.379,0.73,1.31,-1.23,1.95
21.389,1.86,3.14,-1.57,3.98
21.399,3.41,5.33,-0.52,6.35
21.409,4.11,6.33,0.38,7.55
21.419,3.83,4.19,-1.42,5.85
21.429,2.42,0.89,-4.41,5.11
21.439,0.67,-1.49,-3.54,3.90
21.449,-0.74,-2.94,-3.88,4.92
21.459,-2.20,-2.34,-3.90,5.06
21.469,-3.41,0.71,-1.04,3.64
21.479,-3.87,5.92,3.55,7.91
21.489,-3.70,11.60,7.32,14.20
21.499,-3.62,15.40,6.39,17.06
21.509,-4.02,14.54,4.62,15.78
21.519,-5.23,6.39,3.80,9.09
21.529,-5.30,-0.36,3.97,6.64
21.539,-3.62,-3.53,3.57,6.19
21.548,-2.02,-4.67,3.21,6.01
21.559,-1.73,-5.12,2.50,5.96
21.568,-1.87,-4.22,1.18,4.77
21.579,-1.64,-2.46,0.33,2.98
21.589,-1.24,-1.76,-0.18,2.16
21.598,-1.02,-1.24,-0.47,1.67
21.609,-1.54,-0.54,-1.11,1.97
21.618,-2.19,-0.15,-1.89,2.90
21.629,-2.32,-0.54,-1.88,3.03
21.638,-2.10,-1.37,-1.41,2.88
21.648,-1.56,-1.81,-1.43,2.78
21.658,-1.10,-2.19,-1.93,3.12
21.668,-0.60,-2.53,-2.40,3.53
21.678,-0.10,-2.68,-2.12,3.41
21.688,-0.08,-2.64,-0.97,2.82
21.698,-0.31,-2.31,-0.40,2.36
21.708,0.20,-1.12,-0.48,1.24
21.718,0.74,-0.69,-0.55,1.16
21.728,0.98,-1.24,-0.66,1.71
21.738,0.87,-1.97,-0.98,2.37
21.748,0.42,-2.18,-1.34,2.59
21.758,-0.16,-1.68,-1.40,2.19
21.768,-0.78,-0.95,-1.61,2.03
21.778,-1.06,-0.11,-1.96,2.23
21.788,-0.80,0.57,-2.15,2.36
21.798,-0.23,0.55,-2.06,2.15
21.808,0.43,-0.15,-1.91,1.96
21.818,1.25,-1.24,-2.01,2.67
21.828,1.95,-2.26,-2.42,3.85
21.838,2.46,-2.71,-3.43,5.02
21.848,2.71,-2.79,-4.91,6.26
21.858,2.99,-2.55,-6.12,7.27
21.868,3.51,-1.70,-6.08,7.23
21.878,4.14,0.05,-4.84,6.37
21.888,4.63,2.11,-3.27,6.04
21.898,5.00,3.81,-2.15,6.64
21.908,4.89,4.27,-1.67,6.70
21.918,4.13,3.67,-1.34,5.68
21.928,3.38,2.70,-1.01,4.44
21.938,3.01,1.52,-0.84,3.47
21.948,2.57,0.30,-0.61,2.66
21.958,2.15,-0.39,-0.39,2.22
21.968,2.12,-0.38,-0.24,2.17
21.978,1.86,-0.39,0.03,1.90
21.988,1.05,-0.47,0.51,1.25
21.998,-0.26,-0.16,1.49,1.52
22.008,-1.69,0.73,2.39,3.02
22.018,-3.73,1.65,3.27,5.23
22.028,-6.30,3.06,3.85,7.99
22.038,-8.79,4.87,3.77,10.73
22.048,-10.17,6.07,2.46,12.10
22.058,-9.56,7.37,1.04,12.11
22.068,-6.27,7.46,1.90,9.93
22.078,-3.11,5.46,3.35,7.12
22.088,-1.00,3.35,4.43,5.64
22.098,0.45,1.63,4.61,4.91
22.108,1.69,0.45,4.20,4.55
22.118,3.06,0.70,3.85,4.97
22.128,3.41,0.77,4.09,5.38
22.138,3.65,0.47,3.61,5.16
22.148,3.84,0.07,2.49,4.58
22.158,4.03,-0.48,1.51,4.33
22.168,4.01,-0.66,1.17,4.23
22.177,4.38,-0.88,0.97,4.57
22.188,4.47,-3.02,0.29,5.40
22.197,4.13,-5.54,-0.78,6.96
22.208,3.28,-6.80,-1.27,7.65
22.218,1.45,-5.94,-1.30,6.25
22.227,-0.32,-4.62,-1.39,4.84
22.238,-1.13,-4.03,-1.76,4.54
22.247,-1.41,-3.59,-1.76,4.24
22.257,-1.46,-3.05,-1.49,3.70
22.267,-1.89,-2.47,-0.95,3.25
22.277,-2.25,-1.95,-0.12,2.98
22.287,-2.29,-1.60,1.03,2.98
22.297,-2.07,-1.08,1.98,3.05
22.307,-1.79,-1.04,2.11,2.96
22.317,-1.68,-1.23,1.65,2.66
22.327,-1.43,-1.37,1.33,2.38
22.337,-1.10,-1.43,1.09,2.11
22.347,-1.17,-0.47,0.35,1.31
22.357,-0.92,0.74,-0.93,1.50
22.367,0.01,1.96,-1.99,2.79
22.377,1.45,3.99,-2.44,4.89
22.387,2.53,5.08,-2.32,6.14
22.397,2.74,4.59,-1.94,5.69
22.407,2.18,2.50,-2.88,4.40
22.417,1.17,-0.08,-4.03,4.20
22.427,0.78,-1.50,-3.42,3.82
22.437,0.85,-1.86,-3.35,3.93
22.447,0.15,-0.34,-2.94,2.96
22.457,-0.79,3.16,-0.59,3.31
22.467,-0.50,8.31,2.55,8.71
22.477,-0.43,13.44,4.12,14.06
22.487,-0.94,15.02,3.63,15.48
22.498,-2.60,13.18,3.60,13.90
22.507,-4.62,6.18,4.18,8.77
22.517,-4.89,-0.72,5.27,7.22
22.527,-3.66,-4.02,5.45,7.70
22.537,-2.08,-5.40,4.13,7.11
22.547,-1.15,-4.49,2.56,5.30
22.557,-0.49,-3.03,0.82,3.17
22.567,0.09,-2.11,-1.10,2.38
22.577,0.20,-1.38,-1.71,2.21
22.587,-0.35,-1.05,-1.44,1.81
22.597,-1.30,-1.27,-0.93,2.04
22.607,-2.00,-0.97,-0.63,2.31
22.617,-1.98,-0.73,-0.65,2.21
22.627,-1.66,-0.72,-0.52,1.88
22.637,-1.59,-0.93,-0.51,1.91
22.647,-1.59,-1.30,-1.06,2.31
22.657,-1.32,-1.70,-1.52,2.64
22.667,-0.81,-2.16,-1.55,2.78
22.677,-0.57,-2.56,-0.96,2.79
22.687,-0.41,-2.55,-0.40,2.61
22.697,-0.14,-2.38,-0.34,2.41
22.707,0.21,-2.45,-0.25,2.47
22.717,0.33,-2.85,-0.37,2.89
22.727,0.30,-2.91,-0.85,3.05
22.737,-0.04,-2.42,-1.21,2.71
22.747,-0.79,-1.69,-1.46,2.37
22.757,-1.73,-1.18,-1.76,2.73
22.767,-2.26,-0.43,-2.05,3.08
22.777,-2.26,0.64,-1.94,3.05
22.787,-1.71,1.47,-1.65,2.80
22.797,-0.99,1.64,-1.29,2.31
22.807,-0.21,0.93,-0.93,1.33
22.817,0.58,-0.50,-0.96,1.22
22.827,1.32,-1.60,-1.41,2.51
22.837,1.60,-1.87,-1.97,3.15
22.846,1.52,-1.78,-2.95,3.77
22.857,1.60,-1.96,-4.54,5.20
22.867,2.20,-1.95,-6.33,6.98
22.877,3.15,-1.48,-6.97,7.79
22.887,4.14,-0.10,-6.15,7.41
22.897,5.02,1.74,-4.62,7.04
22.907,5.47,2.88,-3.10,6.92
22.917,5.31,3.11,-1.88,6.43
22.926,4.65,2.95,-1.16,5.63
22.936,3.73,2.86,-0.60,4.75
22.946,3.07,2.54,-0.52,4.02
22.956,2.58,1.64,-0.82,3.17
22.966,2.22,0.66,-0.70,2.42
22.976,2.00,-0.14,-0.35,2.03
22.986,1.42,-0.79,-0.12,1.63
22.996,0.84,-0.78,0.11,1.15
23.006,0.14,-0.57,0.82,1.01
23.016,-0.89,-0.52,1.79,2.07
23.026,-2.04,-0.15,2.45,3.20
23.036,-3.80,0.82,3.38,5.16
23.046,-5.92,2.82,3.85,7.60
23.056,-7.65,5.11,4.03,10.04
23.066,-8.57,6.19,3.73,11.21
23.076,-8.20,7.00,2.68,11.10
23.086,-6.32,8.06,2.50,10.54
23.096,-3.58,6.37,3.36,8.04
23.106,-1.04,4.12,4.40,6.12
23.116,1.35,2.50,4.17,5.04
23.126,2.63,0.53,3.43,4.35
23.136,3.21,-0.82,3.39,4.74
23.146,3.46,-1.28,3.22,4.90
23.156,3.22,-0.91,2.68,4.29
23.166,3.59,-0.82,2.12,4.25
23.176,4.20,-1.04,2.59,5.04
23.186,5.37,-1.38,1.77,5.82
23.196,5.86,-3.39,-0.22,6.77
23.206,5.26,-5.45,-1.12,7.66
23.216,3.64,-6.66,-0.81,7.63
23.226,1.50,-6.47,-0.77,6.69
23.236,-0.35,-5.36,-1.17,5.50
23.246,-1.62,-4.11,-1.33,4.61
23.256,-2.02,-3.21,-1.51,4.09
23.266,-1.77,-2.74,-1.50,3.59
23.276,-1.34,-2.25,-1.19,2.88
23.286,-1.31,-1.70,-0.30,2.17
23.296,-1.30,-1.06,0.74,1.84
23.306,-1.53,-0.56,1.30,2.08
23.316,-1.83,-0.32,0.97,2.09
23.326,-1.61,0.03,0.76,1.78
23.336,-0.87,0.19,0.78,1.19
23.346,-0.15,-0.08,0.34,0.38
23.356,0.20,0.16,-0.68,0.72
23.366,1.11,1.24,-1.29,2.11
23.376,2.67,2.53,-1.34,3.92
23.386,3.90,4.46,-0.87,5.99
23.396,4.03,5.12,-0.95,6.58
23.406,3.34,3.24,-2.74,5.40
23.416,2.17,0.56,-4.75,5.25
23.426,1.15,-1.19,-4.11,4.43
23.436,0.53,-2.12,-3.41,4.05
23.446,-0.22,-1.07,-2.75,2.96
23.456,-1.24,1.61,-0.44,2.08
23.466,-1.03,6.41,3.23,7.25
23.476,-0.42,12.36,5.48,13.52
23.486,-1.52,15.76,4.15,16.37
23.496,-4.11,15.71,2.75,16.47
23.506,-7.06,10.17,3.26,12.80
23.515,-7.51,1.05,4.61,8.87
23.526,-5.64,-4.12,4.37,8.24
23.536,-3.56,-5.50,3.42,7.39
23.546,-2.20,-5.14,2.31,6.05
23.556,-1.35,-4.01,1.14,4.39
23.566,-0.73,-2.96,-0.25,3.05
23.576,-0.15,-1.88,-0.76,2.03
23.586,0.35,-1.41,-0.80,1.66
23.596,0.09,-1.49,-0.99,1.79
23.606,-0.82,-1.36,-1.22,2.00
23.616,-1.47,-0.84,-1.15,2.05
23.625,-1.37,-0.80,-1.04,1.89
23.635,-1.20,-1.01,-0.81,1.76
23.645,-0.96,-1.44,-1.01,2.01
23.655,-0.25,-1.92,-1.52,2.46
23.665,0.11,-2.74,-1.47,3.11
23.675,-0.01,-3.43,-1.04,3.59
23.685,-0.16,-3.24,-0.21,3.25
23.696,-0.19,-2.69,-0.05,2.70
23.705,-0.01,-2.41,-0.34,2.43
23.715,0.09,-2.51,-0.42,2.54
23.725,-0.20,-2.84,-0.54,2.90
23.735,-0.86,-2.60,-0.66,2.82
23.745,-1.99,-1.83,-0.77,2.81
23.755,-3.08,-0.55,-1.01,3.29
23.765,-3.62,0.57,-1.39,3.92
23.775,-3.44,1.08,-1.96,4.10
23.785,-2.27,1.45,-2.36,3.58
23.795,-0.89,1.23,-2.33,2.79
23.805,0.35,0.51,-2.10,2.19
23.815,1.63,-0.23,-1.96,2.56
23.825,2.57,-0.91,-2.17,3.49
23.835,2.97,-1.35,-2.76,4.27
23.845,3.05,-1.41,-3.82,5.08
23.855,3.14,-1.50,-5.29,6.33
23.865,3.67,-1.18,-6.29,7.38
23.875,4.36,-0.24,-5.89,7.33
23.885,4.98,1.17,-4.22,6.63
23.895,5.41,2.24,-2.29,6.29
23.905,5.76,1.96,-1.30,6.22
23.915,6.08,1.10,-1.25,6.30
23.925,6.33,0.40,-1.45,6.51
23.935,5.95,0.13,-1.02,6.04
23.945,4.91,0.08,-0.55,4.94
23.955,3.67,-0.19,-0.41,3.70
23.965,2.64,-0.30,-0.37,2.68
23.975,1.82,0.02,-0.09,1.82
23.985,1.05,1.01,0.45,1.52
23.995,-0.30,2.94,1.32,3.24
24.005,-2.23,4.60,2.56,5.72
24.015,-4.35,5.36,3.58,7.78
24.025,-7.04,5.79,4.04,9.97
24.035,-10.15,6.15,4.43,12.66
24.045,-11.99,6.13,4.33,14.14
24.055,-10.96,5.73,3.78,12.93
24.065,-7.78,4.92,3.92,10.00
24.075,-5.34,4.23,4.03,7.92
24.085,-3.41,3.38,4.23,6.40
24.095,-1.35,2.56,4.35,5.23
24.105,0.64,1.16,4.20,4.40
24.115,2.02,-0.48,3.98,4.49
24.125,3.03,-1.77,3.45,4.92
24.135,3.66,-2.16,2.73,5.05
24.145,3.10,-2.56,1.68,4.35
24.155,3.27,-2.53,1.15,4.29
24.165,3.50,-2.24,1.33,4.36
24.175,4.13,-3.65,0.50,5.54
24.185,4.48,-5.46,-0.18,7.07
24.195,4.15,-7.01,-0.70,8.17
24.205,2.72,-7.13,-0.80,7.67
24.215,0.82,-6.29,-0.72,6.39
24.225,-0.60,-5.21,-0.89,5.32
24.234,-1.70,-4.49,-1.07,4.92
24.245,-2.78,-3.72,-1.16,4.79
24.254,-3.24,-2.53,-1.29,4.31
24.264,-3.22,-1.43,-1.23,3.73
24.275,-2.83,-0.68,-0.87,3.04
24.285,-2.17,-0.24,0.01,2.18
24.295,-1.52,0.19,0.87,1.76
24.305,-1.16,0.52,1.20,1.74
24.315,-0.77,0.71,1.18,1.58
24.324,0.04,0.51,1.12,1.23
24.334,1.04,0.86,0.65,1.50
24.344,2.21,2.27,-0.20,3.17
24.355,4.10,4.06,-0.87,5.83
24.364,6.55,6.40,-0.72,9.18
24.374,8.28,6.87,-0.67,10.78
24.384,8.07,5.04,-2.12,9.75
24.394,5.15,3.25,-4.28,7.44
24.404,2.66,1.30,-4.69,5.55
24.414,1.19,-1.40,-4.66,5.01
24.424,0.09,-2.05,-4.41,4.86
24.434,-0.33,-2.07,-3.07,3.72
24.444,-0.87,-1.04,-0.59,1.48
24.454,-0.99,1.68,2.42,3.11
24.464,-1.17,6.20,4.71,7.87
24.474,-2.59,10.18,4.69,11.50
24.484,-4.85,14.44,3.20,15.56
24.495,-8.46,17.71,5.63,20.42
24.504,-9.67,10.33,7.42,15.98
24.514,-7.19,-0.07,6.02,9.37
24.524,-5.51,-5.72,3.17,8.55
24.534,-4.61,-7.44,1.37,8.86
24.544,-4.20,-6.58,0.35,7.82
24.554,-3.54,-5.60,0.24,6.63
24.564,-1.75,-3.78,0.43,4.19
24.574,0.26,-1.50,-0.02,1.52
24.584,1.70,1.50,-1.30,2.61
24.594,2.20,2.26,-2.74,4.18
24.604,2.13,1.34,-3.09,3.99
24.614,1.92,-0.26,-1.98,2.77
24.624,1.68,-1.88,-1.84,3.12
24.634,1.27,-2.67,-2.16,3.66
24.644,0.64,-2.87,-2.16,3.65
24.654,-0.01,-3.23,-1.77,3.68
24.664,-0.62,-3.57,-1.21,3.82
24.674,-1.14,-3.41,-0.63,3.65
24.684,-1.57,-2.96,-0.21,3.36
24.694,-1.68,-2.68,-0.21,3.17
24.704,-2.16,-3.23,-0.37,3.91
24.714,-2.63,-3.18,-0.39,4.15
24.724,-2.90,-2.61,-0.42,3.92
24.734,-3.05,-1.98,-0.73,3.71
24.744,-2.90,-1.02,-1.11,3.27
24.754,-2.23,0.48,-0.99,2.48
24.764,-1.13,1.59,-0.86,2.13
24.774,-0.37,1.77,-1.02,2.08
24.784,0.28,1.74,-1.36,2.23
24.794,0.67,1.26,-1.66,2.19
24.804,0.76,0.52,-1.86,2.08
24.814,0.51,0.03,-2.33,2.38
24.824,-0.25,0.38,-3.36,3.39
24.834,-0.27,-0.15,-4.14,4.15
24.844,0.46,-1.62,-5.37,5.63
24.854,1.91,-1.60,-4.72,5.34
24.864,3.53,-1.26,-3.45,5.09
24.874,4.95,-0.93,-2.97,5.84
24.883,5.73,-0.59,-2.71,6.36
24.894,5.65,-0.11,-2.20,6.07
24.904,4.89,0.69,-1.45,5.15
24.913,4.21,1.61,-0.60,4.55
24.924,4.21,1.48,-0.67,4.51
24.933,4.10,1.10,-1.53,4.51
24.944,3.34,0.92,-1.84,3.92
24.954,2.31,0.58,-1.16,2.65
24.963,1.36,-0.10,-0.24,1.39
24.973,0.15,-0.10,0.36,0.40
24.983,-1.15,0.44,0.89,1.52
24.994,-2.44,0.90,1.68,3.09
25.003,-3.71,1.08,2.49,4.60
25.014,-4.75,1.32,3.07,5.80
25.023,-5.70,2.34,3.55,7.11
25.033,-6.45,3.88,4.05,8.55
25.043,-6.16,3.89,4.50,8.57
25.053,-5.15,2.08,4.59,7.20
25.063,-4.77,2.80,4.38,7.06
25.073,-3.63,3.37,4.68,6.81
25.083,-1.67,3.20,4.56,5.82
25.093,-0.03,2.56,4.14,4.87
25.103,1.35,2.08,3.46,4.25
25.113,2.81,1.32,3.04,4.35
25.123,4.12,2.34,3.08,5.65
25.133,4.69,2.07,2.81,5.84
25.143,4.82,1.37,1.70,5.29
25.153,4.27,0.07,0.72,4.33
25.163,3.58,-1.50,0.50,3.91
25.173,2.87,-3.50,-0.02,4.53
25.183,2.28,-5.16,-1.18,5.77
25.193,1.91,-5.95,-1.47,6.42
25.203,1.18,-5.91,-0.79,6.08
25.213,-0.16,-5.27,-0.55,5.30
25.223,-1.33,-2.98,-0.72,3.34
25.233,-2.01,-1.39,-0.94,2.61
25.243,-1.94,-1.31,-0.95,2.53
25.253,-1.65,-0.69,-0.29,1.81
25.263,-1.26,-0.24,0.53,1.39
25.273,-0.90,0.27,1.14,1.48
25.283,-0.90,0.56,1.40,1.75
25.293,-1.03,0.48,1.10,1.58
25.303,-0.92,0.22,0.82,1.25
25.313,-0.56,-0.27,0.69,0.93
25.323,-0.16,-0.63,0.55,0.85
25.333,0.31,-1.30,0.59,1.46
25.343,0.47,-1.31,0.32,1.43
25.353,0.89,-0.40,-0.55,1.11
25.363,1.76,1.28,-1.27,2.52
25.373,2.76,2.92,-1.20,4.19
25.383,3.26,3.64,-1.29,5.05
25.393,3.44,3.38,-2.93,5.64
25.403,3.05,1.73,-4.01,5.33
25.413,1.60,0.54,-3.46,3.85
25.423,0.89,-1.94,-3.29,3.92
25.433,0.06,-1.97,-2.10,2.88
25.443,-0.86,-0.10,-0.65,1.08
25.453,-1.41,2.66,0.75,3.10
25.463,-0.96,7.83,2.18,8.18
25.473,-0.67,12.13,2.00,12.31
25.483,-1.43,11.05,1.18,11.21
25.493,-3.59,6.81,1.31,7.81
25.503,-5.29,1.61,2.45,6.05
25.513,-5.27,-0.37,4.25,6.78
25.522,-3.89,-1.62,5.00,6.54
25.533,-2.63,-2.86,4.25,5.76
25.543,-2.02,-2.93,2.80,4.52
25.553,-1.37,-2.02,1.50,2.87
25.563,-1.01,-1.73,1.22,2.34
25.573,-0.86,-1.60,0.92,2.04
25.583,-0.97,-1.66,0.36,1.95
25.593,-1.27,-1.60,-0.35,2.07
25.603,-1.62,-0.32,-0.87,1.87
25.612,-1.44,1.14,-1.37,2.29
25.622,-1.17,0.86,-1.35,1.98
25.632,-1.24,-0.35,-1.32,1.84
25.642,-1.04,-0.65,-1.48,1.92
25.653,-0.96,-0.39,-1.26,1.63
25.663,-0.73,-0.75,-1.12,1.53
25.673,-0.56,-1.48,-0.64,1.70
25.683,-0.29,-1.78,-0.43,1.85
25.692,0.07,-2.09,-0.75,2.22
25.702,0.10,-2.52,-0.92,2.69
25.712,-0.08,-2.73,-1.15,2.97
25.722,-0.14,-2.66,-0.86,2.80
25.732,-0.33,-2.45,-0.51,2.52
25.742,-0.72,-2.23,-0.66,2.44
25.752,-1.13,-1.85,-1.04,2.40
25.762,-1.36,-0.93,-1.01,1.93
25.772,-1.28,0.10,-0.84,1.53
25.782,-0.96,0.26,-1.02,1.42
25.792,-0.46,0.12,-1.24,1.33
25.802,-0.07,0.05,-1.18,1.19
25.812,0.14,0.14,-1.01,1.03
25.822,0.24,0.23,-0.88,0.94
25.832,0.27,0.13,-1.13,1.17
25.842,0.29,-0.17,-1.82,1.85
25.852,0.36,-0.39,-2.55,2.61
25.862,0.43,-0.73,-3.24,3.35
25.872,0.30,-1.05,-3.82,3.97
25.882,0.15,-0.88,-4.05,4.15
25.892,0.23,-0.07,-3.76,3.77
25.902,0.96,0.74,-3.22,3.44
25.912,1.96,0.81,-2.68,3.42
25.922,2.31,-0.04,-2.03,3.07
25.932,2.34,-1.02,-1.58,3.00
25.942,2.28,-1.47,-1.14,2.95
25.952,2.52,-1.83,-0.88,3.23
25.962,2.41,-1.21,-1.00,2.88
25.972,2.17,-0.42,-1.15,2.49
25.982,1.73,0.04,-0.63,1.84
25.992,0.61,0.71,0.52,1.07
26.002,-0.42,1.17,1.66,2.07
26.012,-1.31,1.15,2.68,3.20
26.022,-2.09,1.49,3.30,4.18
26.032,-2.60,1.41,3.43,4.54
26.042,-3.47,1.07,3.44,5.00
26.052,-4.39,1.48,3.45,5.77
26.062,-5.21,2.35,3.06,6.49
26.072,-5.04,2.79,2.49,6.28
26.082,-4.08,2.78,2.01,5.33
26.092,-3.19,3.52,1.73,5.06
26.102,-1.94,4.06,2.41,5.10
26.112,-0.44,4.35,3.32,5.49
26.122,1.20,4.39,3.87,5.97
26.132,2.97,4.28,3.98,6.55
26.142,4.61,4.55,3.98,7.60
26.152,5.49,3.65,3.31,7.38
26.162,5.26,2.30,2.47,6.25
26.172,4.66,1.05,2.54,5.41
26.182,4.43,-0.36,3.39,5.59
26.192,3.91,-2.06,2.02,4.86
26.202,2.53,-3.31,0.20,4.17
26.212,1.68,-4.07,-0.53,4.44
26.221,1.24,-3.97,-0.57,4.20
26.232,0.72,-3.51,-0.45,3.61
26.241,0.05,-3.03,-0.34,3.05
26.252,-0.65,-1.81,-0.10,1.93
26.262,-0.98,-1.00,0.33,1.44
26.272,-0.91,-0.41,0.71,1.22
26.282,-0.97,0.08,1.10,1.47
26.291,-1.58,0.57,1.54,2.28
26.301,-2.19,0.42,1.68,2.79
26.312,-2.42,-0.10,1.44,2.82
26.322,-2.14,-0.66,1.00,2.46
26.332,-1.59,-1.23,0.80,2.17
26.341,-0.88,-1.81,1.47,2.49
26.351,0.11,-1.79,1.37,2.25
26.361,0.85,-1.49,0.77,1.88
26.371,1.14,-0.87,0.58,1.55
26.381,1.25,-0.49,-0.15,1.35
26.392,1.55,-0.35,-1.76,2.37
26.401,1.65,0.23,-2.56,3.05
26.411,1.75,0.76,-2.31,3.00
26.421,1.72,0.76,-1.58,2.46
26.431,1.22,-0.03,-1.73,2.11
26.441,0.64,-1.06,-2.25,2.57
26.452,0.61,-2.28,-2.66,3.56
26.461,0.26,-2.02,-1.40,2.47
26.472,0.18,-1.89,-0.47,1.96
26.481,0.44,-1.13,0.68,1.39
26.491,0.11,0.60,2.35,2.43
26.501,0.00,3.01,2.73,4.06
26.511,0.60,6.86,2.18,7.22
26.521,1.87,8.71,1.58,9.05
26.531,2.14,7.86,2.29,8.46
26.541,0.69,6.04,4.16,7.37
26.551,-0.87,3.64,5.67,6.80
26.561,-1.82,2.31,5.51,6.24
26.571,-2.74,1.09,4.82,5.65
26.581,-4.06,-0.13,4.39,5.98
26.591,-5.68,-0.77,3.80,6.88
26.601,-7.65,-1.42,2.64,8.21
26.611,-8.94,-1.64,1.84,9.27
26.621,-9.00,-1.37,2.08,9.34
26.631,-7.77,-1.08,1.86,8.07
26.641,-6.49,-0.51,1.02,6.59
26.651,-5.73,0.04,0.92,5.81
26.661,-4.95,0.32,0.67,5.00
26.671,-4.11,0.61,-0.02,4.16
26.681,-3.00,1.03,-0.57,3.23
26.691,-1.77,1.39,-0.84,2.41
26.701,-0.97,1.53,-0.73,1.95
26.711,-0.81,1.11,-0.43,1.44
26.721,-1.03,0.45,-0.11,1.13
26.731,-1.13,-0.29,0.09,1.17
26.741,-1.03,-0.46,0.25,1.16
26.751,-0.88,0.06,0.44,0.98
26.761,-0.63,0.65,0.21,0.92
26.771,-0.29,0.71,-0.12,0.77
26.781,-0.06,0.45,-0.34,0.57
26.791,-0.04,0.11,-0.18,0.22
26.801,-0.23,-0.05,-0.06,0.24
26.811,-0.56,-0.38,0.20,0.71
26.821,-0.77,-0.72,0.37,1.12
26.831,-0.84,-0.81,0.11,1.18
26.841,-0.56,-0.70,-0.27,0.94
26.851,-0.25,-0.38,-0.03,0.46
26.861,-0.09,-0.41,-0.26,0.50
26.871,-0.03,-0.41,-0.77,0.87
26.881,-0.08,-0.31,-0.85,0.91
26.891,-0.19,-0.43,-0.72,0.86
26.901,-0.22,-0.47,-0.50,0.72
26.911,-0.32,-0.38,-0.24,0.55
26.921,-0.39,-0.86,0.10,0.95
26.931,-0.39,-1.04,0.20,1.13
26.941,-0.50,-0.66,0.57,1.00
26.951,-0.68,-0.34,0.37,0.84
26.961,-0.77,-0.12,0.02,0.78
26.971,-0.83,0.30,0.03,0.88
26.980,-0.73,0.24,-0.11,0.78
26.991,-0.62,0.06,-0.11,0.63
27.000,-0.45,-0.28,0.10,0.54
27.011,-0.21,-0.90,-0.13,0.93
27.021,-0.14,-0.87,-0.08,0.89
27.031,-0.24,-0.69,0.10,0.74
27.040,-0.50,-0.69,-0.15,0.86
27.051,-0.50,-0.95,-0.28,1.11
27.060,-0.63,-0.82,-0.26,1.06
27.070,-0.63,-0.69,-0.32,0.99
27.080,-0.72,-0.26,-0.43,0.88
27.090,-0.82,0.02,-0.60,1.02
27.100,-0.83,0.14,-0.82,1.18
27.110,-0.57,0.23,-0.83,1.03
27.120,-0.43,0.92,-0.54,1.15
27.130,-0.47,1.16,-0.03,1.26
27.140,-0.23,1.09,0.58,1.26
27.150,0.23,1.06,0.59,1.23
27.160,0.28,1.44,0.97,1.75
27.170,0.07,1.44,1.38,2.00
27.180,0.38,1.39,0.90,1.70
27.190,0.83,1.83,0.74,2.15
27.200,1.18,1.70,0.96,2.28
27.210,1.17,1.55,1.49,2.45
27.220,1.07,0.92,1.48,2.04
27.230,0.78,0.58,1.34,1.66
27.240,0.34,0.85,1.48,1.74
27.250,-0.06,1.20,1.26,1.74
27.260,-0.15,1.25,0.65,1.41
27.270,0.00,0.89,0.39,0.97
27.280,0.24,0.56,-0.18,0.64
27.290,0.42,0.40,-0.49,0.76
27.300,0.86,0.05,-0.31,0.92
27.310,1.12,0.24,-0.45,1.23
27.320,1.40,0.33,0.04,1.44
27.330,1.45,0.02,0.10,1.45
27.340,1.05,0.58,-0.33,1.25
27.350,0.40,1.49,-0.47,1.61
27.360,-0.05,1.86,-0.54,1.94
27.370,0.09,1.97,-0.48,2.03
27.380,0.42,1.73,0.09,1.79
27.390,1.07,0.82,0.65,1.50
27.400,1.49,1.12,0.48,1.92
27.410,1.75,1.63,0.25,2.41
27.420,2.23,1.59,0.35,2.76
27.430,2.69,1.68,0.61,3.23
27.440,2.76,1.54,0.75,3.25
27.450,2.52,1.15,1.19,3.01
27.460,2.19,0.85,1.51,2.79
27.470,1.89,1.11,1.55,2.69
27.480,1.71,1.14,1.86,2.77
27.490,1.60,1.50,1.29,2.54
27.500,1.49,2.28,0.51,2.77
27.510,1.54,2.69,0.29,3.12
27.520,1.55,2.29,0.12,2.77
27.530,1.93,1.58,0.01,2.50
27.540,2.39,1.07,0.49,2.67
27.550,2.38,1.00,1.27,2.88
27.560,1.81,0.69,1.78,2.63
27.570,0.73,0.32,1.71,1.88
27.580,-0.63,-0.01,1.21,1.36
27.590,-1.26,-0.23,-0.40,1.35
27.600,-1.75,2.23,0.85,2.96
27.610,-0.96,4.95,0.09,5.05
27.620,1.05,5.66,-0.68,5.80
27.630,2.57,4.75,-0.94,5.49
27.640,4.44,4.44,-0.59,6.31
27.650,5.95,4.04,-1.37,7.32
27.659,4.61,1.80,-2.08,5.37
27.669,3.01,0.71,-1.18,3.31
27.680,1.24,0.10,-1.49,1.94
27.690,-0.59,0.10,-1.59,1.70
27.700,-1.58,0.41,-1.66,2.33
27.710,-1.92,0.18,-1.74,2.60
27.720,-1.75,-0.67,0.82,2.05
27.730,-0.91,-1.47,1.25,2.14
27.739,-0.12,-2.05,-1.31,2.44
27.750,0.55,-2.08,-3.34,3.98
27.759,1.29,-0.84,-1.16,1.93
27.769,2.30,0.16,-0.38,2.33
27.779,3.29,1.35,-0.89,3.66
27.789,3.48,3.36,-1.33,5.02
27.799,3.58,5.13,-1.67,6.47
27.809,3.82,5.90,-1.61,7.21
27.819,4.22,5.24,-1.52,6.90
27.829,4.14,4.44,-1.35,6.22
27.839,3.84,3.72,-0.75,5.39
27.849,3.56,2.80,-0.06,4.53
27.859,3.09,2.22,0.15,3.81
27.869,2.50,2.07,0.35,3.26
27.879,2.15,1.80,0.55,2.86
27.889,1.31,2.30,0.05,2.65
27.899,0.48,2.91,-0.50,2.99
27.909,0.72,2.05,0.70,2.28
27.919,0.59,0.50,3.37,3.46
27.929,-2.61,-3.34,11.46,12.22
27.939,-4.45,-7.20,8.09,11.71
27.949,-3.13,-5.36,5.28,8.15
27.959,-3.04,-4.83,7.40,9.35
27.969,-2.02,-4.53,6.56,8.22
27.979,-0.23,-1.78,4.46,4.80
27.989,1.46,-0.23,3.55,3.84
27.999,1.60,-0.94,2.09,2.80
28.009,2.85,-0.42,1.17,3.11
28.019,3.12,-0.37,-2.23,3.85
28.029,0.54,-0.98,-4.94,5.06
28.039,-2.07,-0.88,-0.40,2.28
28.049,-3.16,-0.49,3.92,5.06
28.059,-3.07,-0.45,6.31,7.03
28.069,-2.62,-0.82,6.80,7.33
28.079,-1.95,-1.04,6.06,6.45
28.089,-1.57,-0.93,2.95,3.47
28.099,-0.61,0.06,1.57,1.68
28.109,0.08,1.59,4.18,4.48
28.119,-0.19,0.61,4.38,4.43
28.129,-0.45,-0.54,3.22,3.29
28.139,-0.24,-0.98,2.18,2.40
28.149,-0.07,-1.09,2.03,2.31
28.159,-0.14,-1.21,1.40,1.85
28.169,-0.58,-1.25,0.18,1.39
28.179,-0.87,-1.54,-2.50,3.06
28.189,-1.04,0.13,-1.63,1.94
28.199,-1.77,0.38,-1.38,2.28
28.209,-2.15,0.36,-1.33,2.56
28.219,-1.68,0.32,-0.89,1.93
28.229,-0.83,-1.23,-1.58,2.16
28.239,0.39,-1.70,-1.73,2.45
28.249,1.51,-1.90,-1.90,3.08
28.258,2.15,-2.02,-2.04,3.59
28.269,2.41,-2.23,-2.44,4.09
28.278,2.43,-2.27,-2.49,4.16
28.289,2.47,-1.87,-2.64,4.07
28.299,2.58,-1.69,-3.04,4.34
28.309,2.39,-1.95,-1.49,3.43
28.319,1.78,-2.95,1.52,3.76
28.329,1.65,-2.97,-0.55,3.44
28.339,0.89,-2.31,-0.25,2.49
28.349,0.73,-1.34,-1.16,1.92
28.358,1.23,-1.34,-0.70,1.94
28.368,1.10,-1.01,-0.47,1.56
28.378,0.70,-0.61,-1.42,1.69
28.389,0.20,-0.46,-0.90,1.03
28.398,-0.41,-0.10,0.37,0.56
28.408,-0.69,-0.10,0.54,0.88
28.418,-0.65,-0.14,0.57,0.87
28.429,-0.44,-0.21,0.63,0.80
28.438,-0.15,-0.26,-0.00,0.30
28.449,0.05,-0.28,-0.66,0.72
28.458,0.03,-0.35,-0.56,0.66
28.468,-0.19,-0.37,-0.41,0.59
28.478,-0.32,-0.13,-0.59,0.68
28.488,-0.44,-0.06,-0.81,0.93
28.498,-0.55,-0.15,-1.17,1.30
28.508,-0.54,-0.26,-1.32,1.45
28.518,-0.23,-0.38,-1.35,1.42
28.528,0.02,-0.60,-1.15,1.30
28.538,0.13,-0.73,-0.97,1.22
28.548,-0.18,-1.15,-1.11,1.61
28.558,-0.28,-1.52,-0.67,1.69
28.568,-0.22,-1.30,-0.05,1.31
28.578,-0.39,-0.87,-0.63,1.15
28.588,-0.43,-0.50,-1.14,1.32
28.598,-0.41,-0.15,-1.31,1.38
28.608,-0.47,0.22,-1.51,1.60
28.618,-0.47,0.55,-1.21,1.41
28.628,-0.54,0.68,-0.41,0.96
28.638,-0.59,0.66,0.26,0.92
28.648,-0.60,0.67,0.45,1.00
28.658,-0.48,0.49,0.32,0.76
28.668,-0.39,0.39,0.16,0.58
28.679,-0.37,0.26,-0.46,0.65
28.688,-0.45,0.10,-0.54,0.71
