time,ax,ay,az,atotal
0.000,-0.02,-0.30,-0.12,0.33
0.010,0.22,0.12,-0.10,0.27
0.020,0.41,0.45,-0.23,0.65
0.030,0.33,0.49,0.26,0.65
0.040,0.25,0.40,0.52,0.70
0.050,0.30,0.52,0.57,0.82
0.060,0.38,0.67,0.41,0.88
0.070,0.32,0.69,0.37,0.85
0.080,0.22,0.57,0.45,0.76
0.090,0.15,0.29,0.40,0.52
0.100,0.14,0.03,0.07,0.16
0.110,0.05,-0.19,-0.25,0.31
0.120,0.09,-0.26,-0.55,0.62
0.130,0.28,-0.19,-0.85,0.92
0.140,0.45,-0.29,-0.79,0.95
0.150,0.51,-0.23,-0.43,0.71
0.160,0.40,0.11,0.21,0.46
0.170,0.25,0.51,0.62,0.84
0.180,-0.09,0.67,0.80,1.04
0.190,-0.18,0.72,0.59,0.95
0.200,0.03,0.71,0.43,0.83
0.210,0.27,0.45,-0.07,0.53
0.220,0.41,0.03,-0.26,0.48
0.230,0.60,-0.12,-0.25,0.66
0.240,0.60,0.08,0.10,0.62
0.250,-0.01,-0.26,0.79,0.83
0.260,-0.17,-0.48,0.78,0.93
0.269,-0.07,-0.42,0.46,0.62
0.280,0.09,-0.19,0.16,0.26
0.289,0.25,0.05,-0.01,0.26
0.300,0.42,0.18,-0.13,0.47
0.309,0.43,0.26,-0.37,0.63
0.319,0.37,0.26,-0.39,0.60
0.330,0.40,0.25,-0.28,0.55
0.339,0.58,0.08,-0.25,0.64
0.349,0.84,-0.14,-0.32,0.91
0.359,0.94,-0.32,-0.58,1.15
0.369,0.73,-0.42,-0.82,1.18
0.379,0.49,-0.41,-0.88,1.08
0.389,0.52,-0.40,-0.82,1.05
0.399,0.46,-0.36,-0.90,1.07
0.409,0.35,-0.12,-0.66,0.75
0.420,0.23,0.22,-0.08,0.32
0.429,0.10,0.65,0.38,0.76
0.439,0.14,0.96,0.67,1.18
0.449,0.37,1.11,0.72,1.37
0.459,0.67,1.06,0.85,1.52
0.469,0.88,0.85,0.77,1.45
0.479,0.90,0.56,0.49,1.17
0.489,0.76,0.25,0.48,0.94
0.499,0.57,-0.04,0.76,0.95
0.509,0.48,-0.25,1.20,1.31
0.519,0.48,-0.32,1.31,1.43
0.529,0.51,-0.15,0.94,1.08
0.539,0.35,0.19,0.31,0.50
0.549,0.28,0.48,-0.10,0.56
0.559,0.53,0.55,0.08,0.77
0.569,0.98,0.53,0.88,1.42
0.579,1.28,0.50,0.91,1.65
0.589,1.33,0.52,0.41,1.49
0.599,1.20,0.50,0.17,1.31
0.609,1.07,0.34,0.07,1.13
0.619,0.84,0.04,-0.01,0.84
0.629,0.46,-0.19,-0.05,0.50
0.639,0.20,-0.33,-0.20,0.44
0.649,0.13,-0.51,-0.29,0.60
0.659,0.17,-0.66,-0.10,0.69
0.669,0.39,-0.67,0.11,0.78
0.679,0.63,-0.53,0.43,0.93
0.689,0.66,-0.39,0.47,0.90
0.699,0.50,-0.14,0.25,0.58
0.709,0.21,0.08,0.09,0.24
0.719,-0.26,0.09,0.03,0.28
0.729,-0.67,-0.05,-0.43,0.80
0.739,-0.94,0.29,-0.99,1.39
0.749,-0.83,1.20,-1.13,1.84
0.759,-0.75,1.29,-1.16,1.89
0.769,-0.82,1.27,-0.78,1.70
0.779,-0.71,0.97,-0.76,1.42
0.789,-0.71,0.76,-0.84,1.34
0.799,-0.94,0.51,-0.64,1.25
0.809,-1.12,-0.07,-0.31,1.17
0.819,-0.80,-0.36,0.12,0.89
0.829,-0.64,0.05,0.02,0.65
0.839,-0.96,0.53,-0.03,1.10
0.849,-1.30,0.58,-0.13,1.43
0.859,-1.45,0.59,-0.34,1.60
0.869,-1.33,0.74,-0.45,1.58
0.879,-0.94,0.58,-0.43,1.19
0.889,-0.68,0.04,-0.42,0.80
0.898,-0.55,-0.45,-0.68,0.98
0.909,-0.35,-0.57,-1.11,1.29
0.919,-0.11,-0.27,-1.32,1.35
0.929,-0.00,0.02,-1.30,1.30
0.939,0.04,0.24,-1.35,1.37
0.949,0.05,0.33,-1.38,1.42
0.959,-0.04,0.32,-1.22,1.26
0.969,-0.11,0.61,-1.07,1.24
0.979,-0.10,0.81,-1.16,1.42
0.989,0.02,0.63,-1.34,1.48
0.998,-0.16,0.33,-1.13,1.18
1.009,-0.28,0.16,-0.62,0.69
1.019,-0.32,0.09,-0.37,0.50
1.029,-0.26,-0.06,-0.45,0.52
1.038,-0.13,-0.05,-0.50,0.52
1.048,0.04,0.13,-0.41,0.43
1.058,0.04,0.20,-0.29,0.36
1.068,0.04,0.16,-0.03,0.16
1.078,-0.37,0.20,-0.61,0.74
1.088,0.10,0.00,-0.84,0.85
1.098,0.35,0.53,-0.30,0.70
1.108,0.42,0.68,0.09,0.80
1.118,0.51,0.55,0.09,0.75
1.128,0.62,0.33,-0.17,0.72
1.138,0.97,-0.04,-0.29,1.01
1.148,0.08,0.60,-0.83,1.03
1.158,0.46,0.31,-0.85,1.02
1.168,0.64,0.59,-0.36,0.94
1.178,0.89,0.14,-0.04,0.90
1.188,1.03,-0.26,0.39,1.13
1.198,1.43,-0.36,0.67,1.62
1.208,1.32,0.52,1.71,2.22
1.218,1.09,1.14,2.08,2.61
1.228,0.85,1.59,1.71,2.49
1.238,0.27,1.26,0.73,1.48
1.248,0.37,0.18,-0.70,0.81
1.258,1.07,-0.25,-1.04,1.51
1.268,1.65,-0.16,-0.42,1.71
1.278,1.93,-0.17,1.04,2.20
1.288,2.10,-0.03,2.77,3.47
1.298,2.12,-0.45,3.35,3.99
1.308,1.47,-0.87,3.48,3.87
1.318,0.15,0.09,2.72,2.72
1.328,-0.49,-0.65,1.75,1.93
1.338,-1.24,-1.96,1.71,2.88
1.348,-1.35,-2.40,1.92,3.36
1.358,-0.48,-1.29,0.90,1.64
1.368,0.75,-1.15,0.50,1.46
1.378,1.33,-2.25,1.27,2.90
1.388,1.55,-3.66,1.68,4.32
1.398,1.61,-3.41,2.01,4.28
1.408,2.06,-2.73,3.01,4.56
1.418,1.95,-1.74,4.34,5.07
1.428,2.29,-0.61,5.77,6.24
1.438,2.88,0.50,5.16,5.93
1.448,2.32,0.11,2.91,3.72
1.458,1.86,-1.49,2.79,3.67
1.468,0.97,-1.88,2.21,3.06
1.478,-0.28,-1.38,2.13,2.55
1.488,-0.21,-1.80,3.02,3.53
1.498,-0.80,-2.51,4.02,4.81
1.508,-0.31,-3.97,4.21,5.80
1.518,0.91,-6.12,6.09,8.69
1.527,2.13,-5.30,7.44,9.38
1.538,2.32,-4.28,5.28,7.19
1.547,-0.41,-4.39,4.16,6.07
1.557,-3.61,-2.18,5.41,6.86
1.567,-6.10,0.46,3.44,7.02
1.578,-8.51,1.51,2.67,9.05
1.588,-10.36,1.13,4.26,11.25
1.597,-10.59,-0.97,6.50,12.46
1.608,-8.61,0.37,6.48,10.79
1.618,-7.12,3.29,5.09,9.34
1.627,-7.37,5.27,3.30,9.64
1.637,-8.42,7.89,2.24,11.76
1.648,-8.66,8.99,0.51,12.49
1.657,-8.48,8.64,-0.48,12.11
1.667,-8.52,8.18,-0.23,11.81
1.677,-8.34,6.65,0.95,10.71
1.687,-6.80,5.04,2.12,8.72
1.697,-3.89,6.19,1.12,7.40
1.707,-0.52,8.21,0.64,8.25
1.717,2.52,9.35,0.60,9.71
1.727,5.26,10.20,0.15,11.48
1.737,7.59,10.57,-2.52,13.25
1.749,8.86,11.09,-4.62,14.93
1.758,9.57,11.21,-5.17,15.62
1.767,10.28,9.29,-4.70,14.63
1.777,10.78,7.03,-4.33,13.58
1.787,10.26,4.01,-4.26,11.81
1.797,9.55,2.80,-4.57,10.95
1.807,8.64,4.97,-4.50,10.93
1.817,8.02,6.18,-4.85,11.22
1.827,8.28,5.90,-4.80,11.24
1.837,8.02,4.68,-3.67,9.99
1.847,8.41,1.50,-2.78,8.98
1.857,10.49,-0.79,0.63,10.54
1.867,10.18,-5.24,3.81,12.07
1.877,7.43,-4.85,2.05,9.11
1.887,8.34,0.11,2.00,8.58
1.897,8.42,-3.86,2.05,9.49
1.907,7.35,-5.61,3.07,9.74
1.917,5.97,-5.32,2.80,8.47
1.927,4.77,-3.40,1.84,6.14
1.937,3.25,-3.02,2.83,5.27
1.947,1.99,-3.37,2.00,4.40
1.957,0.74,-4.18,0.74,4.31
1.967,-0.32,-5.01,0.22,5.03
1.977,-1.20,-7.06,0.24,7.17
1.987,-2.72,-7.65,0.83,8.16
1.997,-3.47,-6.23,0.75,7.17
2.007,-3.13,-5.31,0.03,6.16
2.017,-2.99,-4.15,-0.29,5.12
2.027,-3.23,-4.36,0.69,5.47
2.037,-2.67,-3.66,0.48,4.56
2.047,-2.46,-1.47,0.28,2.88
2.057,-1.71,-0.34,0.60,1.85
2.067,-0.48,0.19,1.60,1.68
2.077,0.22,1.93,1.98,2.77
2.087,0.65,0.45,2.02,2.17
2.097,1.23,-3.35,1.47,3.86
2.107,0.52,-1.35,2.01,2.48
2.117,-0.32,1.18,1.58,2.00
2.126,-0.10,2.90,-0.46,2.93
2.136,-0.66,2.01,-0.80,2.26
2.147,-0.48,0.74,-2.09,2.26
2.157,-0.23,0.66,-3.22,3.30
2.167,0.20,0.87,-2.93,3.06
2.177,1.94,-0.26,-1.53,2.49
2.187,4.33,-1.79,-1.31,4.86
2.196,5.04,-1.95,-0.04,5.40
2.207,4.93,-0.84,-0.12,5.00
2.216,3.63,0.02,-0.29,3.64
2.226,3.16,0.89,0.32,3.30
2.237,2.66,1.53,0.65,3.14
2.247,2.97,1.78,0.69,3.52
2.256,2.92,1.36,2.08,3.83
2.266,4.28,3.26,1.23,5.52
2.276,4.90,4.58,-0.45,6.72
2.286,4.90,4.21,-1.26,6.58
2.297,4.79,3.99,-1.40,6.39
2.306,2.96,2.90,-1.30,4.34
2.316,0.04,2.09,-0.63,2.18
2.326,-2.06,2.24,1.21,3.27
2.336,-3.56,1.73,0.04,3.96
2.346,-4.51,1.54,-1.99,5.16
2.356,-5.39,1.85,-1.80,5.97
2.366,-5.90,2.33,-0.58,6.37
2.376,-4.38,1.74,-0.55,4.74
2.386,-2.34,1.39,-0.84,2.85
2.396,-0.70,0.75,-1.64,1.93
2.406,-0.67,-0.07,-1.44,1.59
2.416,-1.26,-0.74,-0.66,1.61
2.426,-1.03,-1.78,-0.91,2.25
2.436,-0.20,-2.52,-1.29,2.83
2.446,1.16,-3.02,-0.96,3.37
2.456,2.82,-3.04,-1.14,4.30
2.466,3.30,-4.01,-0.24,5.20
2.476,2.65,-5.13,1.15,5.89
2.486,1.70,-5.19,1.98,5.81
2.496,1.16,-5.63,1.89,6.05
2.506,0.61,-6.31,1.38,6.49
2.516,-0.01,-7.10,0.61,7.12
2.526,-0.52,-7.14,-0.45,7.17
2.536,-0.75,-6.19,-1.36,6.38
2.546,-0.88,-5.35,-1.86,5.73
2.556,-0.96,-4.96,-1.70,5.33
2.566,-0.65,-5.83,-1.36,6.02
2.576,0.03,-3.29,-0.99,3.44
2.586,0.74,0.03,-0.56,0.93
2.596,0.09,6.60,-3.14,7.31
2.606,-2.43,13.41,-6.02,14.90
2.616,-1.34,9.48,0.14,9.57
2.626,-0.46,6.21,4.93,7.94
2.636,-0.94,6.08,1.97,6.46
2.646,-1.19,6.42,-2.53,7.00
2.656,-0.86,5.53,-3.99,6.87
2.666,-0.64,3.85,-1.80,4.30
2.676,0.36,2.67,-1.19,2.95
2.686,1.14,1.80,-1.23,2.46
2.696,1.58,0.92,-0.93,2.05
2.706,1.66,0.05,-0.61,1.77
2.716,1.42,-0.73,0.02,1.60
2.726,1.14,-1.51,-0.25,1.91
2.736,0.84,-2.02,-0.99,2.40
2.746,0.71,-2.08,-1.95,2.93
2.756,0.55,-1.92,-2.67,3.34
2.766,0.40,-2.03,-3.00,3.64
2.776,0.46,-2.24,-1.84,2.94
2.785,0.82,-2.76,0.04,2.88
2.796,3.02,-4.83,2.08,6.07
2.806,5.14,-1.49,-3.45,6.36
2.816,4.59,1.35,-1.98,5.17
2.826,2.61,4.06,-0.03,4.83
2.836,1.16,5.16,-0.56,5.32
2.846,0.60,4.98,0.00,5.02
2.855,1.27,3.16,0.35,3.43
2.865,2.49,1.14,0.24,2.75
2.875,2.79,0.34,0.12,2.81
2.885,2.30,-0.18,0.62,2.39
2.896,1.64,-0.71,0.82,1.97
2.905,0.82,-0.94,0.60,1.39
2.916,0.02,-0.77,0.22,0.80
2.925,-0.65,-0.37,-0.21,0.78
2.936,-1.08,0.07,-0.60,1.24
2.945,-1.31,0.33,-0.66,1.50
2.955,-1.38,0.13,-0.52,1.48
2.965,-1.09,-0.43,-0.47,1.27
2.975,-0.51,-0.97,-0.47,1.19
2.985,0.07,-1.22,-0.57,1.35
2.995,0.55,-1.45,-0.73,1.72
3.005,0.93,-1.70,-0.98,2.17
3.015,1.22,-1.88,-1.23,2.56
3.025,1.08,-2.77,-1.32,3.25
3.035,-1.12,-6.46,-0.67,6.59
3.045,-2.52,-8.47,-1.50,8.96
3.055,-2.43,-8.32,-2.87,9.13
3.065,-0.83,-4.56,-3.73,5.95
3.075,0.34,-1.56,-2.05,2.60
3.085,2.37,-1.11,-0.55,2.67
3.095,3.34,-0.27,-0.49,3.39
3.105,3.16,0.85,-0.36,3.29
3.115,2.68,0.65,-0.53,2.81
3.125,2.32,0.23,-0.56,2.40
3.135,2.02,0.45,-0.91,2.27
3.145,2.15,0.88,-1.07,2.55
3.155,2.55,0.70,-1.18,2.89
3.165,2.91,0.31,-1.29,3.20
3.175,3.65,0.44,-1.46,3.96
3.185,4.15,0.51,-1.29,4.37
3.195,4.76,0.48,-0.89,4.87
3.205,4.61,0.64,-0.90,4.74
3.215,4.53,0.66,-1.20,4.73
3.225,4.20,0.64,-1.43,4.48
3.235,3.53,0.58,-2.06,4.13
3.245,2.04,0.15,-2.86,3.52
3.255,-0.49,-0.26,-2.36,2.43
3.265,-1.68,-0.86,0.35,1.92
3.275,-0.86,-1.18,1.07,1.81
3.285,0.10,-0.71,-0.38,0.81
3.295,0.46,0.23,-1.23,1.33
3.305,-0.02,1.19,-1.05,1.59
3.315,-0.81,2.34,-0.04,2.47
3.325,-1.52,3.14,1.42,3.77
3.335,-1.81,2.40,1.72,3.46
3.345,-1.40,0.79,1.49,2.20
3.355,-2.01,2.45,0.66,3.24
3.365,-3.92,5.70,-0.24,6.93
3.375,-4.99,6.31,-0.64,8.07
3.385,-4.45,2.78,-0.06,5.25
3.395,-2.31,-1.12,-0.83,2.70
3.405,-1.15,-0.78,1.23,1.85
3.415,-0.78,0.69,2.88,3.06
3.425,0.58,-1.07,-0.39,1.28
3.435,0.69,-2.67,-1.42,3.10
3.445,-0.09,-2.85,-0.35,2.87
3.455,-0.84,-1.73,-0.42,1.97
3.465,-1.32,-0.72,-0.99,1.80
3.475,-2.08,-0.26,-0.94,2.30
3.485,-3.23,0.73,0.14,3.31
3.495,-3.21,1.63,0.25,3.61
3.505,-2.25,1.87,-0.37,2.95
3.514,-0.99,1.34,-0.63,1.78
3.524,-0.01,-0.06,-0.21,0.22
3.535,0.78,-1.28,-0.24,1.51
3.545,1.31,-1.86,-0.81,2.42
3.555,1.72,-2.09,-1.23,2.97
3.564,1.98,-1.98,-1.22,3.05
3.574,1.85,-1.70,-0.75,2.62
3.584,1.40,-1.40,-0.46,2.03
3.594,0.66,-1.16,-0.45,1.40
3.604,-0.14,-0.96,-0.60,1.14
3.614,-0.77,-0.80,-0.87,1.41
3.624,-1.21,-0.76,-1.18,1.85
3.635,-1.30,-0.72,-1.57,2.16
3.644,-1.15,-0.70,-1.96,2.38
3.654,-0.80,-0.66,-2.25,2.48
3.664,-0.45,-0.58,-2.48,2.58
3.674,-0.28,-0.56,-2.54,2.62
3.684,-0.21,-0.82,-3.10,3.21
3.694,-0.17,-1.07,-3.33,3.50
3.704,-0.06,-1.24,-3.24,3.47
3.714,0.10,-1.53,-2.94,3.31
3.724,0.23,-1.86,-2.46,3.09
3.734,0.24,-2.35,-1.96,3.07
3.744,0.22,-2.89,-1.66,3.34
3.754,0.31,-3.08,-1.56,3.47
3.764,0.53,-2.89,-1.74,3.41
3.774,0.53,-2.17,-2.16,3.11
3.784,0.10,-1.05,-2.95,3.14
3.794,-0.36,0.06,-3.96,3.98
3.804,-0.45,0.74,-4.80,4.88
3.814,-0.11,0.92,-5.35,5.43
3.824,0.31,0.44,-4.98,5.01
3.834,0.86,-0.82,-4.75,4.90
3.844,1.37,-1.86,-4.48,5.04
3.854,1.81,-2.26,-3.75,4.73
3.864,2.06,-2.32,-2.57,4.03
3.874,1.97,-1.99,-1.04,2.99
3.884,1.53,-1.40,0.39,2.11
3.894,0.75,-0.78,1.54,1.88
3.904,0.03,0.26,1.60,1.62
3.914,-0.52,1.83,0.24,1.92
3.924,-0.85,3.48,-1.10,3.75
3.934,-0.68,5.79,-1.59,6.05
3.944,-0.08,8.02,-1.61,8.18
3.954,0.47,9.63,-1.66,9.78
3.964,0.96,9.78,-1.72,9.97
3.974,1.28,7.05,-0.49,7.18
3.984,1.35,4.10,1.67,4.63
3.994,0.92,1.69,3.75,4.21
4.004,0.13,-0.14,4.99,5.00
4.014,0.25,-1.07,4.17,4.31
4.024,0.78,-1.48,3.07,3.50
4.034,1.04,-1.59,3.05,3.60
4.044,1.42,-1.37,2.71,3.35
4.053,1.50,-1.03,2.19,2.84
4.064,1.05,-0.83,1.44,1.97
4.074,0.40,-0.88,0.76,1.23
4.084,-0.25,-1.05,0.34,1.13
4.094,-0.94,-1.18,0.45,1.57
4.104,-1.60,-1.34,0.99,2.31
4.114,-2.13,-1.66,1.68,3.19
4.123,-2.78,-2.24,2.53,4.38
4.133,-3.33,-2.74,2.89,5.19
4.143,-3.55,-2.86,2.70,5.30
4.153,-3.41,-2.74,2.37,4.98
4.164,-2.94,-2.95,1.96,4.60
4.173,-2.42,-3.23,1.41,4.28
4.183,-1.80,-3.31,0.81,3.86
4.193,-0.95,-2.99,0.32,3.16
4.203,0.19,-2.52,-0.13,2.53
4.213,1.69,-2.19,-0.90,2.91
4.223,3.41,-2.25,-2.13,4.61
4.234,5.05,-2.49,-3.00,6.38
4.243,6.22,-2.65,-2.79,7.32
4.253,6.82,-2.76,-2.51,7.77
4.263,6.71,-2.60,-3.33,7.93
4.273,5.45,-0.22,-4.48,7.05
4.283,3.61,2.43,-4.19,6.04
4.293,2.66,2.48,-2.35,4.33
4.303,2.35,1.79,-1.07,3.14
4.313,1.99,1.75,-0.95,2.82
4.323,1.56,3.20,-1.43,3.84
4.334,1.33,4.59,-1.31,4.95
4.343,0.77,5.64,0.24,5.70
4.353,-0.15,6.33,2.50,6.81
4.363,-1.47,6.07,3.00,6.93
4.373,-2.90,4.49,1.54,5.57
4.383,-4.10,3.04,0.76,5.16
4.393,-4.89,2.08,1.26,5.46
4.403,-4.98,1.49,2.36,5.71
4.413,-4.42,1.44,2.98,5.52
4.423,-3.44,1.65,2.45,4.53
4.433,-2.81,1.88,1.13,3.56
4.443,-2.76,2.01,0.03,3.41
4.453,-2.83,2.61,-0.38,3.87
4.463,-3.00,3.30,0.14,4.46
4.473,-3.22,3.64,0.71,4.91
4.483,-2.98,3.29,0.80,4.51
4.493,-2.14,1.56,0.34,2.67
4.503,-1.73,0.39,0.21,1.79
4.513,-1.47,-0.25,0.36,1.54
4.523,-0.91,-0.38,0.21,1.01
4.533,-1.38,-0.67,0.76,1.71
4.543,-1.80,-1.21,0.77,2.30
4.553,-1.46,-1.60,-0.15,2.17
4.563,-0.97,-2.03,-1.07,2.49
4.573,-0.65,-2.46,-1.17,2.80
4.583,-0.09,-2.58,-0.70,2.67
4.593,0.65,-2.54,-0.50,2.67
4.603,1.21,-2.45,-0.57,2.79
4.613,1.40,-2.18,-0.57,2.66
4.623,1.23,-1.82,-0.46,2.25
4.633,0.99,-1.37,-0.43,1.74
4.643,0.86,-1.04,-0.61,1.48
4.653,0.85,-0.77,-0.95,1.49
4.662,0.99,-0.62,-1.42,1.84
4.673,1.20,-0.45,-1.81,2.22
4.683,1.23,-0.45,-2.23,2.59
4.693,1.02,-0.70,-2.63,2.90
4.703,0.68,-0.94,-3.07,3.28
4.713,0.38,-1.29,-3.49,3.74
4.723,0.10,-1.74,-3.70,4.09
4.732,-0.18,-2.38,-3.49,4.23
4.743,-0.39,-3.51,-3.12,4.71
4.753,-0.26,-4.90,-2.86,5.68
4.763,0.05,-5.92,-2.48,6.42
4.773,0.22,-6.01,-2.38,6.47
4.783,-0.20,-4.86,-3.00,5.71
4.792,-1.35,-2.58,-4.31,5.20
4.802,-2.34,-0.50,-6.34,6.78
4.813,-2.62,0.88,-7.80,8.28
4.822,-2.41,1.49,-6.64,7.22
4.833,-1.25,0.73,-4.60,4.83
4.842,0.92,-0.58,-3.45,3.61
4.852,3.08,-1.47,-3.06,4.58
4.862,4.39,-1.76,-2.88,5.54
4.872,4.48,-1.41,-2.14,5.16
4.882,3.75,-0.42,-0.66,3.83
4.892,2.61,1.40,0.95,3.12
4.902,1.11,3.34,1.93,4.01
4.912,-0.72,5.24,1.44,5.48
4.922,-2.03,7.60,-0.19,7.87
4.933,-2.63,9.71,-2.25,10.31
4.942,-2.45,11.37,-3.11,12.04
4.953,-1.48,12.09,-2.35,12.40
4.962,0.33,10.47,-1.19,10.54
4.972,1.53,6.59,0.55,6.79
4.982,1.72,3.78,2.81,5.01
4.992,1.36,1.34,5.18,5.53
5.002,1.09,-0.83,6.14,6.29
5.012,1.46,-2.73,5.71,6.49
5.022,2.27,-3.73,4.59,6.33
5.032,2.27,-3.93,4.06,6.10
5.042,1.64,-3.20,3.10,4.75
5.052,1.11,-2.19,2.31,3.37
5.062,0.23,-1.62,1.62,2.30
5.072,-0.79,-1.26,0.83,1.70
5.082,-1.93,-1.19,0.27,2.28
5.092,-3.01,-1.15,0.37,3.24
5.102,-3.82,-1.31,0.82,4.12
5.112,-4.34,-1.62,1.52,4.87
5.122,-4.52,-2.00,2.24,5.43
5.132,-4.40,-2.41,2.66,5.68
5.142,-3.91,-2.54,2.67,5.38
5.152,-3.20,-2.37,2.16,4.53
5.162,-2.93,-2.50,1.85,4.27
5.172,-2.53,-2.68,1.46,3.97
5.182,-1.71,-2.73,0.94,3.36
5.192,-0.61,-2.48,0.34,2.58
5.202,0.74,-1.92,-0.04,2.06
5.212,2.25,-1.45,-0.53,2.73
5.222,3.98,-1.40,-1.73,4.57
5.232,5.76,-2.01,-3.17,6.88
5.242,6.85,-2.60,-3.35,8.05
5.252,7.10,-3.07,-3.68,8.57
5.262,7.05,-2.98,-5.18,9.24
5.272,6.09,-0.11,-6.70,9.06
5.282,3.80,2.72,-4.64,6.59
5.292,2.39,1.93,-1.48,3.41
5.302,2.15,1.08,-1.43,2.80
5.312,1.61,1.70,-1.19,2.63
5.322,0.67,2.99,0.78,3.16
5.332,-0.39,4.77,2.04,5.21
5.342,-2.04,5.87,2.64,6.75
5.352,-3.52,6.15,3.10,7.74
5.362,-4.07,6.44,3.92,8.56
5.372,-3.89,6.21,3.11,7.96
5.382,-3.30,5.27,0.76,6.26
5.391,-2.90,3.96,0.92,4.99
5.402,-2.61,2.67,2.00,4.23
5.412,-2.43,2.25,1.83,3.79
5.421,-2.57,2.23,1.20,3.61
5.432,-2.73,2.37,0.67,3.67
5.441,-3.12,2.43,0.47,3.98
5.452,-3.75,2.96,1.60,5.04
5.461,-3.77,3.89,1.86,5.73
5.471,-4.14,3.85,1.13,5.77
5.481,-3.63,2.79,-0.25,4.59
5.491,-1.88,0.73,-0.42,2.05
5.501,-0.47,-0.30,0.31,0.64
5.511,0.02,-0.92,1.00,1.36
5.521,-0.13,-1.33,0.72,1.52
5.531,-0.49,-1.93,0.31,2.01
5.541,-0.74,-2.54,0.64,2.72
5.551,-1.01,-2.65,0.77,2.94
5.561,-0.91,-2.47,0.47,2.68
5.571,-0.49,-2.30,-0.10,2.36
5.581,0.00,-2.12,-0.45,2.16
5.591,0.41,-1.83,-0.56,1.96
5.601,0.66,-1.52,-0.71,1.80
5.611,0.81,-1.20,-0.97,1.74
5.621,1.02,-0.90,-1.20,1.82
5.631,1.16,-0.79,-1.20,1.84
5.641,1.38,-0.85,-1.36,2.12
5.651,1.67,-1.07,-1.65,2.58
5.661,1.84,-1.35,-2.01,3.04
5.671,1.74,-1.76,-2.46,3.49
5.681,1.52,-2.09,-2.94,3.92
5.691,1.41,-2.19,-3.44,4.31
5.701,1.44,-2.30,-3.77,4.65
5.711,1.42,-2.74,-3.61,4.75
5.721,1.26,-3.70,-3.08,4.97
5.731,1.20,-4.64,-2.77,5.53
5.741,1.03,-5.21,-2.64,5.93
5.751,0.79,-5.16,-3.07,6.06
5.761,0.06,-3.91,-4.20,5.74
5.771,-1.41,-1.90,-5.51,5.99
5.781,-2.72,0.11,-6.84,7.36
5.791,-2.91,1.62,-6.97,7.72
5.801,-1.76,1.19,-5.29,5.70
5.811,0.19,-0.84,-4.10,4.19
5.821,2.28,-2.34,-3.94,5.12
5.831,3.63,-2.91,-3.90,6.07
5.841,3.93,-2.66,-3.26,5.76
5.851,3.64,-1.96,-2.01,4.60
5.861,2.77,-0.57,-0.09,2.83
5.871,1.33,1.64,1.52,2.61
5.881,-0.12,3.58,0.96,3.71
5.891,-1.56,6.23,-0.25,6.42
5.900,-2.23,9.13,-1.27,9.49
5.911,-2.25,11.82,-2.79,12.35
5.921,-1.48,13.62,-3.41,14.12
5.931,0.28,13.51,-2.52,13.75
5.941,2.19,10.39,-0.57,10.63
5.950,2.57,6.66,2.24,7.48
5.961,2.19,3.78,4.57,6.32
5.971,1.48,1.07,6.53,6.78
5.981,1.03,-1.40,7.65,7.85
5.991,1.31,-2.85,6.29,7.03
6.000,2.10,-3.57,4.47,6.10
6.011,2.03,-3.94,4.01,5.98
6.021,1.64,-3.05,2.81,4.46
6.031,0.98,-2.16,2.18,3.23
6.040,-0.07,-1.72,1.58,2.33
6.050,-1.20,-1.49,0.95,2.14
6.060,-2.25,-1.40,0.79,2.76
6.070,-3.13,-1.62,1.11,3.70
6.080,-3.80,-2.02,2.00,4.75
6.090,-4.11,-2.52,2.78,5.57
6.100,-4.15,-2.99,2.97,5.91
6.110,-4.09,-3.26,2.68,5.88
6.120,-3.99,-3.35,2.24,5.67
6.131,-3.74,-3.37,1.77,5.34
6.140,-3.11,-3.41,1.19,4.77
6.150,-2.04,-3.18,0.35,3.79
6.160,-0.66,-2.61,-0.14,2.69
6.170,0.99,-1.93,-0.14,2.18
6.180,3.08,-1.70,-1.05,3.67
6.190,5.38,-1.93,-2.77,6.35
6.200,7.12,-2.13,-3.25,8.11
6.210,8.10,-2.34,-3.45,9.11
6.220,8.32,-2.40,-4.72,9.86
6.230,7.30,-0.32,-5.17,8.95
6.240,4.59,3.78,-4.13,7.24
6.250,2.67,4.09,-2.82,5.64
6.260,2.18,2.39,-1.56,3.59
6.270,1.65,1.20,-1.21,2.37
6.280,0.59,1.83,-0.51,1.99
6.290,-0.66,2.92,1.31,3.27
6.300,-2.51,3.79,2.63,5.25
6.310,-4.04,4.38,2.19,6.35
6.320,-4.35,5.25,2.72,7.34
6.330,-3.72,6.72,4.01,8.66
6.340,-2.66,7.75,2.58,8.58
6.350,-1.92,7.21,1.01,7.53
6.360,-1.61,5.54,1.52,5.96
6.370,-1.63,4.16,2.27,5.01
6.380,-2.06,3.25,1.79,4.24
6.390,-2.88,2.11,0.73,3.65
6.400,-3.32,1.06,-0.14,3.49
6.410,-3.33,1.00,-0.25,3.48
6.420,-3.47,1.59,0.69,3.88
6.430,-3.82,1.87,1.46,4.50
6.440,-3.69,1.81,1.79,4.48
6.450,-2.80,1.21,1.01,3.21
6.460,-1.80,0.13,0.05,1.81
6.470,-1.39,-0.50,0.24,1.50
6.480,-1.49,-0.59,0.90,1.84
6.490,-1.90,-0.86,0.94,2.29
6.500,-2.12,-1.62,0.35,2.70
6.510,-2.16,-2.44,-0.18,3.26
6.520,-1.83,-2.79,-0.61,3.39
6.530,-1.21,-2.83,-0.91,3.21
6.540,-0.51,-2.74,-1.06,2.98
6.550,0.25,-2.45,-1.09,2.69
6.560,0.99,-1.96,-1.06,2.44
6.570,1.59,-1.50,-0.74,2.31
6.580,1.92,-1.16,-0.68,2.35
6.590,2.04,-0.96,-0.64,2.34
6.600,2.05,-0.80,-0.67,2.30
6.610,1.96,-0.69,-1.00,2.31
6.620,1.91,-0.73,-1.52,2.55
6.630,1.76,-0.97,-2.11,2.92
6.640,1.45,-1.44,-2.75,3.43
6.650,1.14,-1.92,-3.32,4.00
6.659,0.97,-2.25,-3.87,4.58
6.669,0.84,-2.49,-4.10,4.87
6.680,0.58,-2.84,-3.94,4.88
6.689,0.21,-3.51,-3.47,4.94
6.700,0.03,-4.36,-3.03,5.31
6.709,0.04,-5.11,-2.63,5.75
6.720,0.07,-5.13,-2.84,5.87
6.730,-0.45,-3.89,-3.73,5.41
6.739,-2.00,-1.74,-5.10,5.74
6.749,-3.33,0.44,-6.59,7.40
6.759,-3.31,1.64,-6.56,7.53
6.769,-1.74,1.05,-4.93,5.33
6.779,0.35,-0.54,-3.80,3.86
6.789,2.64,-1.73,-3.57,4.76
6.799,4.43,-2.31,-3.53,6.12
6.809,5.15,-2.30,-3.31,6.54
6.819,4.64,-2.01,-2.21,5.51
6.830,3.27,-0.84,0.17,3.38
6.839,1.71,0.97,1.28,2.35
6.849,-0.00,3.16,0.49,3.20
6.859,-1.41,6.53,-0.41,6.69
6.869,-2.26,9.63,-1.53,10.00
6.879,-2.29,12.06,-3.14,12.67
6.889,-1.43,13.93,-3.31,14.39
6.899,0.13,13.92,-2.10,14.08
6.909,1.97,10.34,0.33,10.53
6.919,2.12,6.21,3.29,7.34
6.929,1.79,3.14,5.05,6.21
6.939,1.24,0.30,5.90,6.03
6.949,0.64,-2.00,6.98,7.29
6.959,1.49,-3.38,5.97,7.01
6.969,2.10,-4.15,4.58,6.53
6.979,2.10,-3.99,3.76,5.88
6.989,1.74,-3.20,2.97,4.70
6.999,0.80,-2.92,2.36,3.84
7.009,-0.49,-2.47,1.74,3.06
7.019,-1.69,-1.93,0.90,2.72
7.029,-2.83,-1.41,0.63,3.22
7.039,-3.81,-1.11,1.05,4.10
7.049,-4.40,-1.20,1.72,4.87
7.059,-4.61,-1.69,2.49,5.51
7.069,-4.58,-2.28,2.87,5.86
7.079,-4.42,-2.72,2.70,5.85
7.089,-4.20,-2.94,2.34,5.64
7.099,-3.97,-2.80,1.96,5.24
7.109,-3.48,-2.87,1.45,4.74
7.119,-2.58,-2.77,0.61,3.84
7.129,-1.24,-2.29,-0.08,2.60
7.139,0.39,-1.85,-0.28,1.91
7.149,2.29,-1.49,-0.82,2.85
7.159,4.58,-1.62,-2.61,5.51
7.169,6.57,-2.11,-4.23,8.10
7.179,7.64,-2.42,-4.54,9.21
7.189,7.97,-2.36,-4.90,9.65
7.199,7.95,-1.20,-5.48,9.74
7.209,6.45,2.02,-4.07,7.89
7.219,4.00,3.05,-1.35,5.21
7.229,2.38,1.63,-0.70,2.97
7.239,1.22,1.34,-1.45,2.32
7.248,0.23,2.93,-0.92,3.08
7.258,-0.35,4.82,0.69,4.88
7.269,-1.41,5.94,1.90,6.39
7.279,-3.10,6.11,2.50,7.30
7.289,-4.07,6.08,3.06,7.93
7.299,-4.32,5.51,3.58,7.87
7.308,-3.95,4.59,1.89,6.34
7.319,-3.50,3.84,1.04,5.30
7.328,-3.22,3.04,1.82,4.78
7.339,-2.77,2.87,2.18,4.54
7.349,-2.32,3.10,1.49,4.15
7.358,-2.29,3.04,-0.30,3.82
7.369,-2.79,2.55,-1.39,4.03
7.379,-3.79,2.55,0.17,4.58
7.388,-4.12,3.22,1.83,5.54
7.398,-4.14,3.63,2.26,5.96
7.408,-3.93,3.12,0.78,5.08
7.418,-2.98,1.58,-0.21,3.37
7.429,-1.53,0.29,0.06,1.56
7.438,-0.50,-0.16,0.95,1.08
7.448,-0.31,-0.51,0.86,1.05
7.458,-0.78,-1.09,0.39,1.40
7.468,-1.43,-1.96,0.14,2.43
7.478,-1.57,-2.64,-0.32,3.08
7.488,-1.35,-2.78,-0.34,3.11
7.498,-0.85,-2.52,-0.11,2.66
7.508,-0.30,-2.15,0.04,2.17
7.518,0.16,-1.78,-0.21,1.79
7.528,0.60,-1.47,-0.43,1.64
7.538,0.93,-1.47,-0.56,1.83
7.548,1.05,-1.69,-0.63,2.09
7.558,1.10,-1.81,-0.76,2.25
7.568,1.10,-1.74,-1.03,2.30
7.578,1.13,-1.52,-1.47,2.40
7.588,1.19,-1.16,-2.07,2.65
7.598,1.26,-0.95,-2.81,3.22
7.608,1.08,-1.04,-3.44,3.75
7.618,0.66,-1.37,-3.84,4.13
7.628,0.04,-1.86,-3.77,4.20
7.638,-0.50,-2.42,-3.34,4.15
7.648,-0.62,-3.26,-2.58,4.21
7.658,-0.24,-4.59,-1.67,4.89
7.668,-0.00,-5.34,-1.37,5.51
7.678,-0.49,-4.95,-2.01,5.37
7.688,-1.30,-3.79,-3.52,5.33
7.698,-1.96,-2.10,-5.05,5.81
7.708,-2.56,-0.64,-6.19,6.73
7.718,-3.12,0.55,-6.04,6.82
7.728,-2.64,1.05,-4.55,5.36
7.738,-0.99,0.39,-3.68,3.83
7.748,1.37,-0.91,-3.33,3.71
7.758,3.44,-2.04,-3.44,5.28
7.768,4.59,-2.13,-3.58,6.20
7.778,4.72,-1.69,-3.07,5.88
7.788,4.01,-1.14,-1.47,4.42
7.798,2.75,0.14,0.60,2.82
7.808,1.29,1.98,1.62,2.86
7.818,-0.25,5.19,0.93,5.27
7.828,-1.12,8.34,-0.32,8.42
7.837,-1.49,10.06,-1.35,10.25
7.848,-1.38,10.81,-1.61,11.02
7.859,-0.31,11.04,-1.38,11.14
7.868,1.46,9.81,-0.37,9.92
7.878,2.55,6.99,1.29,7.55
7.887,2.37,4.50,2.97,5.89
7.898,1.69,2.29,4.48,5.31
7.908,1.05,0.13,5.41,5.51
7.918,0.95,-1.86,5.34,5.73
7.928,1.43,-2.79,4.91,5.83
7.938,1.95,-3.37,4.08,5.64
7.948,1.70,-3.10,3.53,5.00
7.957,1.29,-2.42,2.51,3.72
7.967,0.81,-1.69,2.05,2.78
7.977,-0.05,-1.23,1.68,2.09
7.987,-0.90,-0.84,1.00,1.59
7.997,-1.87,-0.74,0.71,2.13
8.007,-2.79,-0.84,0.82,3.02
8.017,-3.50,-1.27,1.22,3.92
8.028,-3.92,-1.92,1.75,4.70
8.037,-4.06,-2.46,1.97,5.14
8.047,-4.03,-2.69,1.92,5.21
8.057,-3.87,-2.58,1.86,5.01
8.067,-3.59,-2.50,1.62,4.66
8.077,-3.03,-2.63,1.23,4.20
8.087,-2.19,-2.66,0.70,3.51
8.097,-1.09,-2.43,-0.05,2.67
8.107,0.31,-2.17,-0.26,2.21
8.117,2.11,-1.83,-0.69,2.88
8.127,4.16,-1.94,-2.08,5.04
8.137,5.97,-2.55,-3.40,7.33
8.147,6.98,-2.83,-3.67,8.38
8.157,7.37,-3.11,-3.77,8.84
8.167,7.11,-2.70,-4.05,8.62
8.177,5.44,0.34,-3.88,6.69
8.187,2.94,2.41,-1.70,4.17
8.197,1.29,1.33,-0.58,1.94
8.207,0.43,1.01,-1.64,1.98
8.217,-0.03,1.97,-1.44,2.44
8.227,-0.12,3.56,0.66,3.62
8.237,-0.58,4.88,2.20,5.38
8.247,-1.92,5.45,2.02,6.12
8.257,-2.99,6.33,2.10,7.31
8.267,-3.15,7.18,3.45,8.57
8.277,-2.72,7.37,3.38,8.55
8.287,-2.25,6.45,2.13,7.16
8.297,-1.89,4.47,1.73,5.16
8.307,-1.88,3.03,2.05,4.11
8.317,-2.17,2.67,2.13,4.05
8.327,-2.66,2.11,1.48,3.70
8.337,-2.99,1.66,0.78,3.51
8.347,-3.05,1.66,0.15,3.47
8.357,-3.43,2.19,0.35,4.08
8.367,-3.91,2.96,0.90,4.99
8.377,-4.47,3.02,0.65,5.43
8.387,-4.14,2.32,-0.11,4.75
8.397,-2.54,1.49,0.01,2.95
8.407,-1.10,0.24,0.74,1.35
8.417,-0.61,-0.79,0.84,1.31
8.427,-0.69,-1.23,0.36,1.46
8.437,-0.87,-1.80,-0.18,2.01
8.447,-0.87,-2.41,-0.51,2.61
8.457,-0.76,-2.62,-0.42,2.76
8.467,-0.54,-2.40,-0.33,2.48
8.477,-0.14,-2.04,-0.28,2.07
8.487,0.34,-1.80,-0.18,1.84
8.497,0.78,-1.67,-0.23,1.86
8.507,1.03,-1.66,-0.25,1.97
8.517,1.12,-1.68,-0.20,2.03
8.527,1.15,-1.69,-0.26,2.06
8.537,1.05,-1.62,-0.27,1.95
8.547,1.04,-1.29,-0.77,1.83
8.557,1.08,-0.84,-1.42,1.98
8.567,1.12,-0.50,-2.02,2.36
8.576,1.04,-0.36,-2.64,2.86
8.586,0.70,-0.54,-3.16,3.28
8.596,0.29,-0.81,-3.77,3.87
8.606,0.00,-1.19,-4.13,4.30
8.617,-0.23,-1.74,-3.98,4.35
8.627,-0.27,-2.72,-3.47,4.42
8.636,-0.07,-4.07,-2.76,4.92
8.646,0.17,-5.37,-2.28,5.84
8.656,0.11,-5.85,-2.18,6.25
8.666,-0.38,-5.16,-2.64,5.81
8.676,-1.10,-3.56,-3.44,5.07
8.686,-2.09,-1.64,-4.33,5.08
8.696,-3.12,0.30,-5.24,6.11
8.706,-3.19,1.87,-4.83,6.09
8.716,-1.88,2.02,-3.79,4.69
8.727,0.45,0.80,-3.39,3.51
8.736,2.85,-0.87,-3.38,4.50
8.746,4.50,-1.64,-3.54,5.96
8.756,5.06,-1.81,-3.11,6.21
8.766,4.66,-1.88,-2.00,5.40
8.776,3.41,-1.12,0.13,3.59
8.786,1.76,0.30,2.15,2.80
8.796,0.13,1.82,2.60,3.18
8.806,-1.27,4.93,1.07,5.20
8.816,-2.22,7.67,-0.52,8.00
8.826,-2.63,9.57,-1.63,10.06
8.836,-1.97,11.08,-1.89,11.41
8.848,-0.13,11.80,-1.75,11.93
8.856,1.88,10.15,-0.42,10.33
8.866,2.64,7.00,1.48,7.63
8.876,2.68,4.05,3.15,5.79
8.886,2.53,1.35,4.86,5.64
8.896,2.21,-0.90,6.78,7.19
8.906,2.34,-2.90,6.69,7.66
8.916,2.68,-3.61,5.20,6.87
8.926,2.26,-3.32,4.08,5.73
8.936,1.67,-2.44,3.19,4.35
8.946,1.05,-1.54,2.76,3.33
8.956,0.24,-1.00,2.02,2.26
8.966,-0.36,-0.55,1.09,1.27
8.976,-1.03,-0.49,0.37,1.19
8.986,-1.78,-0.61,0.26,1.90
8.996,-2.40,-0.89,0.72,2.66
9.006,-2.91,-1.36,1.51,3.55
9.016,-3.31,-1.78,2.29,4.40
9.026,-3.60,-2.02,2.64,4.90
9.036,-3.76,-2.08,2.50,4.97
9.046,-3.78,-2.08,2.15,4.82
9.056,-3.45,-2.36,1.75,4.53
9.066,-2.89,-2.67,1.26,4.13
9.076,-2.15,-2.86,0.50,3.61
9.086,-1.10,-2.64,-0.21,2.86
9.096,0.35,-2.39,-0.70,2.51
9.106,2.09,-2.47,-1.57,3.60
9.116,3.80,-2.75,-2.85,5.49
9.126,5.12,-2.94,-3.51,6.87
9.135,5.89,-2.95,-3.57,7.49
9.146,6.37,-2.77,-3.81,7.92
9.156,6.57,-1.49,-3.98,7.83
9.166,5.40,1.09,-3.52,6.54
9.176,3.74,1.42,-1.39,4.23
9.186,2.47,0.77,-1.16,2.84
9.196,1.72,1.97,-2.02,3.30
9.206,1.81,4.15,-0.63,4.57
9.216,2.00,6.11,2.12,6.77
9.226,1.47,7.41,3.33,8.25
9.235,-0.16,7.75,2.79,8.24
9.245,-2.08,6.75,1.93,7.32
9.255,-3.36,4.27,2.08,5.82
9.265,-3.92,2.12,2.06,4.91
9.275,-3.87,1.78,2.34,4.86
9.285,-3.42,1.84,3.20,5.03
9.295,-2.77,2.02,2.72,4.38
9.305,-2.16,2.29,1.37,3.43
9.315,-1.91,2.67,-0.31,3.29
9.325,-2.42,2.93,-0.70,3.87
9.335,-3.37,3.20,0.71,4.70
9.345,-3.89,3.65,1.69,5.60
9.355,-4.24,3.46,1.72,5.73
9.365,-4.24,2.64,0.14,5.00
9.375,-3.72,1.38,-1.09,4.12
9.385,-2.35,0.26,-0.41,2.40
9.395,-1.44,-0.09,0.77,1.63
9.405,-1.40,-0.10,1.37,1.96
9.415,-1.62,-0.64,0.69,1.87
9.425,-1.64,-1.43,-0.12,2.18
9.435,-1.47,-1.88,-0.51,2.44
9.445,-1.22,-2.02,-0.64,2.45
9.455,-0.67,-1.86,-0.66,2.08
9.465,0.02,-1.73,-0.57,1.82
9.475,0.59,-1.73,-0.55,1.91
9.485,1.07,-1.80,-0.61,2.18
9.495,1.43,-1.83,-0.56,2.39
9.505,1.61,-1.82,-0.52,2.49
9.515,1.74,-1.71,-0.58,2.50
9.525,1.82,-1.43,-0.67,2.41
9.535,1.86,-1.16,-0.93,2.38
9.545,1.85,-0.96,-1.39,2.50
9.555,1.73,-0.84,-1.94,2.73
9.565,1.43,-0.87,-2.43,2.95
9.575,0.85,-1.05,-2.82,3.12
9.585,0.21,-1.37,-3.18,3.47
9.595,-0.21,-1.83,-3.34,3.81
9.605,-0.41,-2.53,-3.27,4.15
9.615,-0.54,-3.32,-2.81,4.38
9.625,-0.46,-4.10,-2.19,4.67
9.635,-0.22,-4.93,-1.61,5.20
9.645,0.03,-5.13,-1.69,5.41
9.655,-0.07,-4.26,-2.50,4.94
9.665,-0.90,-2.49,-3.50,4.39
9.675,-2.27,-0.50,-4.55,5.11
9.685,-3.63,1.29,-5.51,6.72
9.695,-3.90,2.26,-5.06,6.77
9.705,-2.65,1.89,-4.08,5.22
9.715,-0.52,0.49,-3.64,3.71
9.724,1.75,-1.03,-3.60,4.14
9.735,3.56,-1.85,-3.75,5.49
9.745,4.55,-2.02,-3.54,6.11
9.755,4.65,-2.07,-2.61,5.72
9.765,3.89,-1.77,-0.81,4.35
9.775,2.60,-0.58,1.12,2.89
9.785,1.11,0.94,2.40,2.80
9.795,-0.17,3.42,1.72,3.83
9.805,-1.05,6.21,0.06,6.29
9.814,-1.33,8.20,-1.28,8.41
9.825,-1.25,9.92,-1.34,10.09
9.835,-0.26,11.20,-1.33,11.29
9.845,1.46,10.35,-0.60,10.47
9.855,2.42,7.26,1.07,7.73
9.865,2.22,4.51,2.76,5.74
9.874,1.86,2.41,4.00,5.03
9.885,1.28,0.34,4.92,5.09
9.895,0.90,-1.66,5.69,5.99
9.904,1.33,-2.99,4.94,5.93
9.914,1.71,-3.32,4.19,5.61
9.924,1.40,-3.02,3.73,5.00
9.934,1.07,-2.21,2.48,3.49
9.944,0.64,-1.38,1.84,2.38
9.954,-0.15,-1.05,1.40,1.76
9.964,-0.95,-0.77,0.67,1.39
9.974,-1.56,-0.57,-0.19,1.67
9.984,-2.28,-0.65,-0.15,2.38
9.994,-2.91,-0.73,0.52,3.04
10.004,-3.24,-1.05,1.35,3.66
10.014,-3.31,-1.54,2.02,4.17
10.024,-3.20,-1.79,2.35,4.35
10.034,-3.06,-1.78,2.42,4.29
10.044,-2.96,-1.94,2.32,4.23
10.054,-2.73,-2.22,1.91,4.01
10.064,-2.28,-2.43,1.25,3.56
10.074,-1.55,-2.53,0.56,3.02
10.084,-0.52,-2.23,0.07,2.29
10.094,0.82,-1.83,-0.21,2.02
10.104,2.51,-1.66,-1.03,3.18
10.114,4.39,-2.14,-2.55,5.51
10.124,5.68,-2.81,-3.38,7.19
10.134,6.02,-3.18,-3.18,7.51
10.144,6.32,-3.39,-4.05,8.24
10.154,6.51,-2.40,-5.36,8.76
10.164,5.09,0.56,-4.79,7.02
10.174,3.04,1.70,-2.29,4.17
10.184,2.36,1.47,-2.56,3.78
10.194,2.65,2.62,-2.30,4.38
10.204,2.78,4.36,0.83,5.24
10.214,2.24,6.36,3.42,7.56
10.224,0.80,7.42,3.66,8.31
10.234,-1.65,7.03,3.51,8.02
10.244,-3.52,5.39,3.36,7.26
10.254,-4.36,3.53,3.14,6.43
10.264,-4.52,2.76,2.46,5.84
10.274,-4.22,3.12,2.69,5.90
10.284,-3.61,3.47,2.97,5.82
10.294,-2.79,3.63,2.06,5.02
10.304,-2.15,3.78,0.05,4.35
10.314,-2.24,4.01,-0.72,4.65
10.324,-2.90,3.83,0.22,4.81
10.334,-3.95,3.22,2.29,5.58
10.344,-4.00,2.82,2.41,5.46
10.354,-3.89,1.72,1.22,4.43
10.364,-3.84,0.44,0.01,3.86
10.374,-2.93,-0.63,-0.97,3.15
10.384,-1.72,-1.53,-1.20,2.59
10.394,-1.01,-1.48,-0.52,1.86
10.404,-0.92,-1.16,0.60,1.59
10.414,-0.99,-1.41,0.60,1.82
10.424,-1.08,-1.86,-0.01,2.16
10.433,-0.97,-2.05,-0.33,2.29
10.444,-0.37,-2.02,-0.51,2.12
10.454,0.35,-1.97,-0.63,2.10
10.464,0.99,-1.92,-0.79,2.30
10.473,1.45,-1.78,-0.88,2.46
10.484,1.64,-1.63,-0.85,2.46
10.493,1.66,-1.37,-0.78,2.29
10.503,1.64,-1.23,-0.81,2.20
10.513,1.75,-1.01,-1.15,2.33
10.524,1.93,-0.88,-1.27,2.48
10.533,2.05,-0.96,-1.42,2.68
10.543,2.08,-1.13,-1.74,2.94
10.553,1.90,-1.24,-2.04,3.05
10.563,1.48,-1.21,-2.38,3.06
10.573,1.03,-1.19,-2.73,3.16
10.583,0.60,-1.35,-3.04,3.38
10.593,0.24,-1.62,-3.21,3.60
10.603,-0.06,-1.99,-3.13,3.70
10.613,-0.33,-2.68,-2.65,3.78
10.624,-0.32,-3.74,-2.02,4.26
10.633,-0.22,-4.87,-1.45,5.09
10.643,-0.14,-5.30,-1.41,5.48
10.653,-0.22,-4.66,-2.00,5.08
10.663,-0.85,-3.07,-3.08,4.43
10.673,-2.06,-1.01,-4.73,5.26
10.683,-3.05,0.96,-6.28,7.05
10.693,-2.97,2.13,-6.32,7.30
10.703,-1.75,1.96,-4.98,5.63
10.713,0.16,0.56,-3.97,4.01
10.723,2.39,-0.91,-3.53,4.36
10.733,4.03,-1.74,-3.30,5.50
10.743,4.60,-2.18,-2.93,5.87
10.753,4.14,-2.23,-2.13,5.16
10.763,2.99,-1.36,-0.33,3.30
10.773,1.65,0.13,1.50,2.23
10.783,0.26,1.60,2.28,2.80
10.793,-0.95,3.95,1.31,4.27
10.803,-1.84,6.65,-0.46,6.92
10.813,-2.26,8.47,-1.83,8.96
10.823,-2.10,10.11,-2.10,10.54
10.833,-0.52,11.24,-1.59,11.36
10.843,1.26,9.76,-0.45,9.85
10.853,2.14,6.79,1.52,7.28
10.863,2.06,4.04,3.42,5.68
10.873,1.76,1.85,4.50,5.17
10.883,0.82,-0.15,5.65,5.72
10.893,0.54,-1.66,6.16,6.40
10.903,0.85,-2.34,4.91,5.50
10.913,1.24,-2.65,3.86,4.84
10.923,1.15,-2.40,3.18,4.15
10.933,1.07,-1.65,2.24,2.98
10.943,0.67,-1.16,1.55,2.05
10.953,-0.04,-0.91,0.94,1.31
10.963,-0.75,-0.63,0.25,1.01
10.973,-1.53,-0.46,0.13,1.60
10.983,-2.26,-0.56,0.64,2.41
10.993,-2.81,-0.87,1.38,3.25
11.003,-3.12,-1.33,2.11,4.00
11.013,-3.32,-1.80,2.56,4.56
11.023,-3.42,-1.85,2.45,4.60
11.033,-3.40,-1.70,2.09,4.34
11.043,-3.33,-1.89,1.75,4.21
11.053,-3.08,-2.14,1.28,3.96
11.063,-2.39,-2.41,0.65,3.46
11.073,-1.37,-2.34,-0.13,2.72
11.082,0.01,-1.85,-0.36,1.89
11.093,1.82,-1.40,-0.76,2.42
11.103,3.66,-1.74,-1.96,4.50
11.112,5.09,-2.57,-3.19,6.53
11.123,5.80,-3.38,-3.33,7.50
11.133,6.01,-3.86,-3.64,8.02
11.143,6.06,-3.22,-4.84,8.40
11.153,5.04,-0.54,-5.17,7.23
11.163,3.16,0.68,-3.21,4.56
11.172,2.05,-0.18,-1.83,2.75
11.183,1.85,0.36,-1.86,2.65
11.192,2.02,2.22,-0.94,3.14
11.202,1.84,4.17,1.36,4.76
11.212,0.82,5.83,3.25,6.72
11.222,-1.13,6.89,3.21,7.69
11.232,-2.60,7.29,2.67,8.18
11.242,-3.24,6.95,2.48,8.06
11.252,-3.73,5.16,1.86,6.63
11.262,-3.99,3.07,1.58,5.27
11.272,-3.74,2.03,2.07,4.73
11.282,-3.06,1.78,2.42,4.29
11.292,-2.28,1.80,1.80,3.42
11.302,-1.82,1.91,0.01,2.64
11.312,-2.06,2.19,-0.45,3.04
11.322,-2.67,2.38,0.92,3.69
11.332,-3.23,2.74,1.97,4.67
11.342,-2.99,3.07,2.05,4.75
11.352,-3.01,2.85,1.09,4.29
11.362,-3.41,1.70,0.47,3.84
11.372,-2.98,0.23,-0.55,3.04
11.382,-1.90,-0.48,-1.10,2.25
11.392,-1.51,-0.43,-0.21,1.58
11.402,-1.44,-0.21,0.82,1.67
11.412,-1.40,-0.47,0.96,1.76
11.422,-1.26,-1.19,0.41,1.78
11.432,-0.96,-1.63,-0.19,1.90
11.442,-0.56,-1.75,-0.43,1.89
11.452,-0.05,-1.63,-0.40,1.68
11.462,0.50,-1.46,-0.32,1.58
11.472,0.89,-1.29,-0.36,1.61
11.482,1.03,-1.16,-0.32,1.59
11.492,0.98,-1.12,-0.33,1.52
11.502,0.90,-1.16,-0.33,1.51
11.512,0.93,-1.17,-0.36,1.53
11.522,0.96,-1.11,-0.51,1.55
11.532,0.98,-1.00,-0.86,1.64
11.542,1.01,-0.83,-1.33,1.87
11.552,0.98,-0.68,-1.90,2.24
11.562,0.87,-0.61,-2.47,2.68
11.572,0.68,-0.63,-2.95,3.09
11.582,0.48,-0.75,-3.32,3.44
11.592,0.25,-1.06,-3.42,3.59
11.602,-0.06,-1.59,-3.20,3.57
11.612,-0.44,-2.54,-2.59,3.65
11.622,-0.59,-3.89,-2.10,4.46
11.632,-0.34,-5.15,-1.65,5.42
11.642,0.07,-5.91,-1.51,6.10
11.652,0.30,-5.38,-2.06,5.77
11.662,-0.33,-3.48,-3.06,4.65
11.672,-1.68,-1.06,-4.38,4.81
11.682,-2.94,1.17,-5.85,6.65
11.692,-3.14,2.58,-6.14,7.36
11.702,-2.10,2.52,-5.04,6.02
11.712,-0.15,1.25,-4.46,4.64
11.722,1.94,-0.42,-4.02,4.48
11.732,3.53,-1.57,-3.57,5.26
11.742,4.30,-2.05,-3.11,5.69
11.751,4.32,-2.22,-2.21,5.33
11.762,3.71,-1.82,-0.80,4.21
11.771,2.68,-0.75,1.15,3.01
11.782,1.43,0.41,2.41,2.83
11.791,0.13,1.63,2.37,2.89
11.802,-0.88,3.96,0.60,4.10
11.811,-1.47,5.96,-0.90,6.21
11.822,-1.39,7.42,-2.02,7.81
11.832,-0.72,8.83,-1.91,9.06
11.842,0.74,9.41,-1.05,9.49
11.851,1.81,7.88,0.35,8.09
11.861,2.11,5.31,1.93,6.03
11.871,1.43,3.01,3.61,4.91
11.881,0.39,1.27,4.67,4.85
11.891,-0.67,-0.19,5.09,5.14
11.901,-0.72,-1.27,5.08,5.28
11.911,0.16,-1.94,3.77,4.25
11.921,0.73,-2.12,2.97,3.72
11.931,0.75,-1.67,2.45,3.06
11.941,0.75,-1.08,1.61,2.08
11.951,0.73,-0.52,1.03,1.36
11.961,0.41,-0.37,0.87,1.04
11.971,-0.13,-0.41,0.72,0.84
11.981,-0.85,-0.60,0.95,1.41
11.991,-1.50,-0.94,1.32,2.20
12.001,-2.09,-1.26,1.85,3.06
12.011,-2.62,-1.58,2.53,3.97
12.021,-2.93,-1.70,2.72,4.34
12.031,-3.06,-1.82,2.40,4.29
12.041,-3.17,-1.98,1.95,4.21
12.051,-3.17,-2.29,1.47,4.18
12.061,-2.85,-2.59,0.99,3.97
12.071,-2.15,-2.58,0.46,3.39
12.081,-1.07,-2.26,-0.13,2.50
12.091,0.39,-1.82,-0.41,1.91
12.101,2.10,-1.45,-1.11,2.78
12.111,3.81,-1.76,-2.41,4.84
12.121,5.14,-2.55,-3.26,6.60
12.131,5.83,-3.29,-3.07,7.36
12.141,6.21,-3.69,-3.41,7.99
12.151,6.47,-3.05,-4.72,8.57
12.161,5.60,-0.46,-4.85,7.42
12.171,3.53,0.92,-2.38,4.35
12.181,2.03,0.26,-1.58,2.58
12.191,1.47,0.41,-2.24,2.71
12.201,1.30,1.79,-1.07,2.45
12.211,1.00,3.75,1.41,4.12
12.221,0.31,5.19,3.10,6.06
12.231,-1.27,5.90,3.37,6.91
12.241,-2.65,6.34,2.88,7.45
12.251,-3.03,6.87,2.97,8.07
12.261,-3.04,6.82,2.75,7.96
12.271,-2.97,5.85,1.72,6.78
12.281,-2.67,4.12,1.67,5.18
12.291,-2.29,2.85,2.24,4.28
12.301,-2.00,2.40,2.06,3.75
12.311,-2.17,2.08,1.16,3.22
12.321,-2.69,1.94,0.59,3.37
12.331,-3.07,1.75,0.55,3.57
12.341,-3.47,2.08,1.07,4.18
12.351,-3.91,2.43,1.59,4.87
12.361,-4.01,2.17,1.74,4.88
12.370,-3.67,1.42,-0.07,3.93
12.381,-2.98,0.16,-1.62,3.39
12.391,-1.72,-0.74,-1.22,2.24
12.401,-0.96,-0.64,-0.03,1.15
12.411,-1.12,-0.35,0.97,1.52
12.421,-1.38,-0.63,0.57,1.62
12.431,-1.40,-1.10,-0.03,1.78
12.441,-1.18,-1.46,-0.29,1.91
12.450,-0.69,-1.64,-0.50,1.85
12.460,-0.05,-1.77,-0.67,1.90
12.470,0.58,-1.89,-0.75,2.11
12.480,1.17,-1.81,-0.79,2.29
12.490,1.59,-1.62,-0.85,2.42
12.500,1.77,-1.44,-0.91,2.46
12.510,1.79,-1.26,-0.80,2.33
12.521,1.78,-1.18,-0.70,2.25
12.530,1.78,-1.06,-0.74,2.20
12.540,1.80,-0.99,-0.98,2.28
12.550,1.73,-0.92,-1.32,2.36
12.560,1.49,-0.80,-1.81,2.47
12.570,1.12,-0.75,-2.23,2.61
12.580,0.58,-0.91,-2.69,2.90
12.590,0.13,-1.20,-3.21,3.43
12.601,-0.08,-1.72,-3.57,3.97
12.610,-0.24,-2.56,-3.59,4.42
12.621,-0.43,-3.45,-3.24,4.75
12.630,-0.49,-4.22,-2.65,5.01
12.640,-0.36,-4.93,-2.11,5.38
12.650,-0.18,-5.35,-1.56,5.58
12.660,-0.12,-4.90,-1.67,5.17
12.670,-0.58,-3.34,-2.29,4.09
12.680,-1.99,-1.26,-3.06,3.86
12.690,-3.45,0.82,-4.40,5.65
12.700,-3.74,2.57,-5.35,7.02
12.710,-2.69,3.01,-4.96,6.40
12.720,-0.57,2.13,-4.20,4.74
12.730,1.73,0.55,-3.97,4.37
12.740,3.79,-0.54,-3.99,5.53
12.750,4.95,-1.28,-3.89,6.43
12.760,5.04,-2.01,-3.08,6.25
12.770,4.19,-2.10,-1.53,4.93
12.780,2.87,-1.22,0.62,3.18
12.790,1.29,-0.01,2.18,2.53
12.800,-0.31,0.93,2.14,2.35
12.810,-1.53,2.73,0.97,3.28
12.820,-2.39,4.95,0.02,5.50
12.830,-2.55,6.90,-0.84,7.40
12.840,-1.81,8.93,-2.16,9.36
12.850,-0.48,10.16,-2.46,10.47
12.860,1.03,9.69,-1.21,9.82
12.870,1.76,7.55,1.28,7.86
12.880,1.67,4.86,3.28,6.10
12.890,1.35,2.47,4.51,5.32
12.900,0.59,0.20,5.15,5.19
12.910,0.24,-1.67,5.96,6.19
12.919,0.76,-2.68,5.12,5.83
12.930,1.32,-2.94,3.97,5.11
12.939,1.30,-2.44,3.32,4.32
12.949,1.02,-1.44,2.68,3.21
12.960,0.84,-0.63,1.88,2.15
12.970,0.29,-0.31,1.25,1.32
12.979,-0.44,-0.01,0.68,0.81
12.990,-1.24,-0.03,0.45,1.32
13.000,-1.95,-0.36,0.70,2.10
13.010,-2.36,-0.82,1.03,2.71
13.020,-2.73,-1.40,1.58,3.45
13.030,-3.01,-1.94,2.35,4.28
13.039,-3.12,-1.92,2.54,4.46
13.049,-3.13,-1.72,2.22,4.21
13.060,-3.04,-1.96,1.79,4.04
13.069,-2.82,-2.23,1.17,3.78
13.080,-2.27,-2.39,0.64,3.36
13.089,-1.44,-2.35,0.07,2.76
13.099,-0.35,-2.06,-0.32,2.11
13.109,1.08,-1.66,-0.55,2.05
13.120,2.69,-1.68,-1.34,3.44
13.129,4.11,-2.19,-2.47,5.27
13.139,5.08,-2.94,-2.93,6.56
13.149,5.41,-3.56,-2.85,7.08
13.159,5.50,-3.67,-3.52,7.49
13.169,4.97,-1.57,-4.94,7.19
13.179,3.74,0.98,-4.74,6.12
13.189,2.44,0.51,-2.78,3.73
13.199,2.02,0.14,-2.26,3.04
13.209,2.13,0.88,-1.95,3.02
13.219,2.09,2.12,0.14,2.98
13.229,1.44,3.60,2.26,4.49
13.239,0.09,4.96,2.99,5.80
13.249,-1.59,6.30,3.25,7.27
13.259,-2.50,7.34,3.54,8.52
13.269,-2.76,7.33,2.80,8.31
13.279,-3.15,5.63,1.54,6.63
13.289,-3.28,2.68,0.93,4.34
13.299,-2.85,1.51,1.66,3.63
13.309,-2.27,1.68,2.08,3.51
13.319,-1.59,1.70,1.28,2.66
13.329,-1.73,1.62,0.50,2.42
13.339,-2.40,1.52,0.18,2.85
13.349,-2.92,1.98,0.90,3.64
13.359,-3.55,2.94,2.06,5.05
13.369,-3.95,3.59,1.83,5.65
13.379,-4.14,3.21,1.50,5.45
13.389,-3.86,1.78,-0.36,4.26
13.399,-2.84,0.47,-1.31,3.16
13.409,-1.76,0.07,-0.25,1.78
13.419,-1.29,0.33,0.87,1.59
13.429,-1.43,0.18,1.20,1.88
13.439,-1.60,-0.42,0.53,1.73
13.449,-1.48,-1.00,-0.27,1.81
13.459,-1.10,-1.32,-0.61,1.82
13.469,-0.54,-1.37,-0.63,1.60
13.479,0.01,-1.33,-0.32,1.37
13.489,0.51,-1.25,-0.11,1.35
13.499,0.89,-1.25,-0.15,1.55
13.509,1.06,-1.33,-0.29,1.73
13.519,1.14,-1.35,-0.45,1.82
13.529,1.19,-1.42,-0.31,1.88
13.539,1.20,-1.42,-0.28,1.87
13.549,1.20,-1.28,-0.53,1.83
13.559,1.21,-1.10,-0.95,1.88
13.568,1.22,-0.94,-1.43,2.10
13.579,1.20,-0.83,-1.92,2.41
13.589,0.99,-0.76,-2.27,2.59
13.599,0.59,-0.79,-2.58,2.76
13.609,0.23,-0.93,-2.95,3.10
13.619,-0.04,-1.18,-3.25,3.46
13.629,-0.36,-1.55,-3.22,3.59
13.639,-0.70,-2.16,-2.80,3.60
13.649,-0.95,-3.10,-2.17,3.90
13.658,-0.87,-4.15,-1.61,4.54
13.669,-0.46,-4.90,-1.32,5.09
13.678,-0.17,-4.84,-1.46,5.06
13.688,-0.51,-3.69,-2.07,4.26
13.698,-1.51,-1.76,-3.15,3.91
13.709,-2.44,0.18,-4.54,5.16
13.718,-2.53,1.76,-5.23,6.07
13.728,-1.79,2.17,-4.73,5.50
13.738,-0.64,1.43,-4.20,4.48
13.748,0.94,0.04,-3.95,4.06
13.758,2.46,-1.16,-3.51,4.44
13.768,3.45,-1.71,-3.04,4.91
13.779,3.82,-2.05,-2.28,4.89
13.789,3.50,-2.17,-1.14,4.27
13.798,2.79,-1.48,0.33,3.17
13.808,1.77,-0.31,1.81,2.55
13.819,0.61,1.07,2.59,2.87
13.828,-0.29,3.60,1.46,3.89
13.838,-0.88,5.68,0.37,5.76
13.848,-0.94,7.41,-0.66,7.50
13.858,-0.21,8.96,-1.42,9.07
13.868,0.73,9.24,-0.99,9.32
13.878,1.74,7.92,0.34,8.11
13.888,2.25,5.70,1.93,6.43
13.898,2.03,3.27,2.99,4.87
13.908,1.47,1.30,3.60,4.10
13.918,0.80,-0.09,4.43,4.51
13.928,0.54,-1.37,4.95,5.16
13.938,0.81,-1.85,4.42,4.86
13.948,1.03,-1.91,3.68,4.27
13.958,1.00,-1.44,3.08,3.54
13.968,0.69,-0.77,2.30,2.52
13.978,0.41,-0.20,1.56,1.63
13.988,0.01,0.00,1.16,1.16
13.998,-0.41,0.00,0.39,0.56
14.008,-0.89,-0.18,-0.12,0.92
14.018,-1.48,-0.64,0.13,1.62
14.028,-2.05,-1.05,0.75,2.42
14.038,-2.48,-1.35,1.46,3.18
14.048,-2.78,-1.64,2.13,3.87
14.058,-2.94,-1.51,2.32,4.04
14.068,-2.97,-1.44,2.12,3.92
14.078,-2.95,-1.75,1.74,3.85
14.088,-2.81,-2.15,1.12,3.71
14.098,-2.36,-2.46,0.50,3.44
14.108,-1.64,-2.46,-0.15,2.96
14.118,-0.60,-2.19,-0.65,2.36
14.128,0.91,-1.94,-0.95,2.35
14.138,2.60,-1.82,-1.69,3.60
14.148,4.07,-2.04,-2.78,5.34
14.158,5.09,-2.61,-3.25,6.57
14.168,5.72,-3.19,-2.82,7.13
14.178,6.07,-3.79,-2.73,7.66
14.188,5.81,-3.16,-3.54,7.50
14.198,4.31,-0.67,-3.87,5.83
14.208,2.69,-0.03,-2.24,3.50
14.218,1.50,-0.72,-1.67,2.35
14.228,0.96,-0.42,-1.62,1.93
14.238,0.97,0.92,-1.02,1.68
14.248,1.21,3.09,0.60,3.37
14.258,0.79,4.69,2.70,5.47
14.268,-0.73,5.74,3.82,6.93
14.278,-1.98,6.56,3.36,7.63
14.288,-2.05,7.09,2.53,7.80
14.298,-1.96,6.85,1.74,7.34
14.308,-2.19,5.37,1.37,5.96
14.318,-2.39,3.15,2.30,4.57
14.328,-2.52,2.27,2.70,4.33
14.338,-2.61,1.88,2.25,3.92
14.348,-2.72,1.74,1.66,3.63
14.357,-2.97,1.80,1.89,3.95
14.368,-3.26,1.97,2.13,4.36
14.377,-3.32,2.14,1.64,4.28
14.388,-3.27,2.20,0.81,4.03
14.397,-3.30,2.08,0.02,3.90
14.407,-3.30,1.46,0.35,3.62
14.417,-3.10,0.40,-0.64,3.19
14.427,-1.81,-0.31,-1.51,2.38
14.437,-0.61,-0.66,-0.55,1.05
14.447,-0.28,-0.28,0.59,0.71
14.457,-0.73,-0.06,0.89,1.16
14.467,-1.21,-0.24,0.42,1.31
14.477,-1.40,-0.50,-0.29,1.51
14.487,-1.17,-0.69,-0.79,1.57
14.497,-0.54,-0.86,-0.89,1.35
14.507,0.22,-1.00,-0.72,1.25
14.517,0.92,-1.07,-0.56,1.52
14.527,1.45,-1.12,-0.47,1.89
14.537,1.65,-1.26,-0.30,2.10
14.547,1.61,-1.43,-0.12,2.15
14.557,1.47,-1.49,-0.13,2.09
14.567,1.36,-1.34,-0.30,1.93
14.577,1.28,-1.09,-0.67,1.81
14.587,1.26,-0.92,-1.06,1.88
14.597,1.19,-0.91,-1.46,2.09
14.607,1.09,-0.94,-1.87,2.36
14.617,0.97,-0.91,-2.29,2.65
14.627,0.77,-0.95,-2.62,2.89
14.637,0.64,-0.98,-2.93,3.15
14.647,0.53,-1.12,-3.15,3.38
14.657,0.31,-1.57,-3.11,3.49
14.667,-0.01,-2.28,-2.92,3.70
14.677,-0.27,-3.24,-2.64,4.19
14.687,-0.22,-4.39,-2.11,4.88
14.697,0.08,-5.20,-1.38,5.38
14.707,0.40,-5.18,-1.31,5.36
14.717,0.04,-4.10,-1.70,4.44
14.727,-1.23,-2.14,-2.59,3.57
14.737,-2.51,-0.01,-4.25,4.93
14.747,-3.03,1.77,-5.61,6.61
14.757,-2.56,2.72,-5.59,6.72
14.767,-1.28,2.14,-4.51,5.15
14.777,0.40,0.46,-3.73,3.78
14.787,2.25,-0.86,-3.29,4.08
14.797,3.54,-1.64,-2.80,4.81
14.807,3.96,-2.29,-2.37,5.15
14.817,3.63,-2.41,-1.59,4.63
14.827,2.76,-1.76,0.02,3.27
14.837,1.59,-0.64,1.66,2.39
14.847,0.39,0.78,2.40,2.55
14.857,-0.81,3.01,1.46,3.44
14.867,-1.81,4.73,0.50,5.09
14.877,-2.07,6.73,-0.61,7.06
14.887,-1.25,8.47,-2.00,8.79
14.897,-0.24,8.88,-2.01,9.11
14.906,0.92,8.22,-0.76,8.31
14.917,1.65,6.45,0.92,6.72
14.927,1.86,4.36,1.69,5.04
14.937,1.80,2.41,2.55,3.94
14.947,1.06,0.66,4.48,4.66
14.956,0.55,-0.77,5.63,5.71
14.966,0.87,-1.62,4.39,4.76
14.977,1.08,-1.81,3.58,4.16
14.987,0.88,-1.52,3.42,3.84
14.997,0.87,-0.91,2.59,2.88
15.006,0.85,-0.49,1.88,2.12
15.017,0.48,-0.29,1.12,1.25
15.026,-0.05,-0.06,0.29,0.30
15.036,-0.73,-0.16,0.01,0.75
15.046,-1.47,-0.45,0.34,1.57
15.056,-2.14,-0.86,1.04,2.53
15.066,-2.72,-1.36,1.83,3.55
15.076,-3.18,-1.76,2.30,4.30
15.086,-3.46,-1.72,2.31,4.50
15.096,-3.60,-1.74,2.06,4.50
15.106,-3.66,-2.11,1.57,4.51
15.116,-3.45,-2.43,0.94,4.32
15.126,-2.85,-2.64,0.33,3.90
15.136,-1.86,-2.52,-0.35,3.15
15.146,-0.43,-2.13,-0.55,2.24
15.156,1.35,-1.60,-0.70,2.21
15.166,3.23,-1.42,-1.56,3.86
15.176,4.76,-1.74,-2.65,5.72
15.186,5.89,-2.34,-2.77,6.92
15.196,6.49,-3.03,-2.61,7.62
15.206,6.39,-3.33,-3.16,7.86
15.216,5.12,-1.21,-4.15,6.70
15.226,3.33,0.43,-3.89,5.14
15.236,1.78,-0.17,-2.53,3.10
15.246,1.10,-0.50,-2.19,2.50
15.256,1.26,0.65,-1.85,2.33
15.266,1.53,2.46,0.36,2.92
15.276,1.27,3.83,2.40,4.69
15.286,-0.02,4.79,3.19,5.76
15.296,-1.70,5.64,2.97,6.60
15.306,-2.41,6.36,2.68,7.31
15.316,-2.54,6.67,2.33,7.51
15.326,-2.86,5.86,1.62,6.72
15.336,-3.21,3.80,1.40,5.17
15.346,-2.99,2.17,2.01,4.21
15.356,-2.49,1.83,1.86,3.61
15.366,-2.01,1.72,1.22,2.92
15.376,-1.85,1.76,0.81,2.67
15.386,-2.13,1.86,1.18,3.07
15.396,-2.32,1.96,1.46,3.37
15.406,-2.29,1.96,1.46,3.34
15.416,-2.39,1.60,0.90,3.01
15.426,-2.45,0.93,0.27,2.63
15.436,-2.26,-0.02,0.49,2.32
15.446,-1.42,-0.59,-0.44,1.59
15.456,-0.78,-0.67,-1.63,1.93
15.466,-1.13,0.01,-0.74,1.35
15.476,-1.69,0.62,0.62,1.91
15.486,-1.85,0.23,1.09,2.16
15.496,-1.69,-0.58,0.72,1.92
15.506,-1.23,-1.18,-0.07,1.71
15.516,-0.56,-1.45,-0.62,1.67
15.526,0.19,-1.57,-0.69,1.73
15.536,0.88,-1.50,-0.58,1.84
15.545,1.34,-1.27,-0.42,1.89
15.555,1.57,-1.02,-0.35,1.91
15.565,1.66,-0.75,-0.35,1.85
15.575,1.63,-0.60,-0.41,1.78
15.585,1.52,-0.64,-0.54,1.74
15.595,1.36,-0.68,-0.69,1.67
15.605,1.18,-0.72,-0.96,1.68
15.615,0.98,-0.82,-1.30,1.82
15.625,0.73,-1.09,-1.77,2.20
15.635,0.48,-1.44,-2.23,2.69
15.645,0.14,-1.74,-2.59,3.13
15.655,-0.09,-1.97,-3.20,3.76
15.665,-0.20,-2.25,-3.64,4.28
15.675,-0.22,-2.66,-3.83,4.66
15.685,-0.29,-3.17,-3.64,4.84
15.695,-0.40,-3.64,-3.14,4.82
15.705,-0.46,-3.99,-2.59,4.78
15.715,-0.47,-4.11,-1.81,4.52
15.725,-0.37,-3.72,-1.58,4.06
15.735,-0.73,-2.58,-1.73,3.19
15.745,-2.01,-0.73,-1.90,2.86
15.755,-3.16,1.20,-2.48,4.19
15.765,-3.49,2.74,-3.21,5.48
15.775,-2.57,3.73,-4.17,6.16
15.785,-0.58,3.47,-4.44,5.67
15.795,1.52,1.87,-4.00,4.67
15.805,3.27,0.15,-4.16,5.29
15.815,4.36,-1.15,-3.86,5.94
15.825,4.64,-2.10,-2.79,5.81
15.835,4.13,-2.53,-1.31,5.02
15.845,2.98,-2.29,0.33,3.78
15.855,1.27,-1.63,1.92,2.82
15.865,-0.42,-1.10,2.74,2.98
15.875,-1.59,0.39,1.99,2.58
15.885,-2.36,2.64,0.22,3.55
15.895,-2.35,4.76,-0.94,5.39
15.905,-1.42,7.12,-2.10,7.56
15.915,-0.23,8.88,-2.28,9.17
15.925,1.16,9.08,-1.10,9.22
15.935,2.28,7.60,0.55,7.96
15.945,2.33,4.92,2.35,5.93
15.955,1.86,2.49,3.92,5.00
15.965,0.91,0.55,5.23,5.34
15.975,0.39,-0.91,5.84,5.93
15.985,0.88,-2.18,4.39,4.98
15.995,1.21,-3.01,3.43,4.72
16.005,1.00,-2.71,3.24,4.34
16.015,0.80,-1.64,2.41,3.02
16.025,0.66,-0.57,1.54,1.77
16.035,0.34,-0.02,0.82,0.88
16.045,-0.09,0.27,0.09,0.30
16.055,-0.62,0.21,-0.12,0.66
16.064,-1.17,-0.17,0.19,1.20
16.075,-1.70,-0.58,0.78,1.96
16.085,-2.23,-1.09,1.46,2.88
16.095,-2.76,-1.56,1.97,3.73
16.104,-3.12,-1.45,2.16,4.06
16.115,-3.24,-1.63,2.00,4.14
16.125,-3.04,-2.02,1.63,3.99
16.135,-2.62,-2.37,1.17,3.72
16.145,-2.13,-2.51,0.68,3.36
16.155,-1.34,-2.49,0.15,2.84
16.165,-0.18,-2.21,-0.32,2.24
16.175,1.29,-1.75,-0.51,2.24
16.185,3.01,-1.61,-1.21,3.62
16.195,4.47,-2.11,-2.45,5.52
16.205,5.30,-3.01,-2.99,6.79
16.215,5.53,-3.93,-2.57,7.26
16.225,5.41,-4.37,-3.22,7.66
16.235,4.78,-2.53,-4.76,7.21
16.245,3.60,0.03,-4.68,5.90
16.255,2.12,0.08,-2.19,3.05
16.264,1.12,-0.19,-1.71,2.05
16.274,0.98,1.21,-2.04,2.56
16.284,1.57,3.29,-0.25,3.65
16.294,1.79,4.95,2.27,5.73
16.304,0.97,5.85,3.52,6.90
16.314,-0.55,6.34,3.30,7.17
16.324,-1.70,6.44,3.05,7.32
16.334,-2.30,6.12,2.72,7.08
16.344,-2.60,5.28,1.82,6.16
16.354,-2.69,4.21,1.69,5.28
16.364,-2.52,3.05,2.52,4.69
16.374,-2.24,2.67,2.43,4.25
16.384,-2.09,2.64,1.48,3.68
16.394,-2.38,2.35,0.60,3.40
16.404,-2.79,2.34,0.43,3.66
16.415,-3.31,2.57,0.97,4.30
16.424,-3.67,2.79,1.43,4.83
16.434,-4.06,2.62,0.97,4.92
16.444,-3.58,1.13,0.19,3.76
16.454,-2.79,-0.52,-0.20,2.84
16.464,-1.67,-1.01,-1.07,2.22
16.474,-0.95,-1.04,-0.58,1.53
16.484,-0.90,-0.51,0.34,1.09
16.494,-1.17,-0.26,0.59,1.34
16.504,-1.23,-0.80,0.21,1.48
16.514,-1.10,-1.33,-0.28,1.75
16.524,-0.77,-1.54,-0.50,1.79
16.534,-0.21,-1.47,-0.54,1.58
16.544,0.41,-1.30,-0.43,1.43
16.554,0.96,-1.17,-0.23,1.53
16.564,1.35,-1.16,-0.33,1.81
16.574,1.55,-1.11,-0.67,2.02
16.584,1.50,-0.98,-0.48,1.86
16.594,1.36,-1.00,-0.20,1.70
16.604,1.32,-1.06,-0.36,1.73
16.614,1.35,-1.01,-0.66,1.81
16.624,1.32,-0.89,-1.10,1.94
16.634,1.17,-0.89,-1.66,2.22
16.644,0.92,-0.90,-2.15,2.51
16.654,0.51,-0.90,-2.59,2.79
16.664,0.06,-0.96,-3.12,3.27
16.674,-0.29,-1.24,-3.58,3.80
16.684,-0.53,-1.69,-3.70,4.10
16.694,-0.70,-2.26,-3.48,4.21
16.704,-0.88,-3.14,-2.81,4.30
16.714,-0.99,-4.09,-2.16,4.73
16.724,-0.71,-4.85,-1.84,5.23
16.734,-0.20,-5.12,-1.83,5.44
16.744,0.00,-4.42,-2.25,4.96
16.754,-0.68,-2.73,-2.91,4.04
16.764,-1.98,-0.75,-3.95,4.49
16.774,-2.78,0.99,-5.09,5.88
16.783,-2.61,2.08,-5.21,6.19
16.794,-1.57,1.77,-4.25,4.86
16.804,0.06,0.36,-3.68,3.70
16.814,1.99,-1.01,-3.32,4.00
16.823,3.57,-1.80,-3.00,4.99
16.833,4.32,-2.19,-2.64,5.52
16.843,4.06,-2.33,-1.70,4.97
16.853,3.11,-1.69,-0.07,3.54
16.863,1.93,-0.39,1.34,2.39
16.873,0.64,1.56,2.01,2.62
16.884,-0.65,4.27,1.15,4.47
16.893,-1.68,6.20,-0.09,6.43
16.904,-1.97,8.01,-1.39,8.36
16.913,-1.52,9.62,-1.85,9.92
16.923,-0.54,9.36,-1.19,9.46
16.933,1.05,7.71,0.14,7.78
16.943,2.19,5.56,1.48,6.15
16.953,2.31,3.51,2.47,4.87
16.963,2.05,1.87,3.34,4.34
16.973,1.65,0.34,4.30,4.62
16.983,1.31,-1.15,5.29,5.57
16.993,1.65,-2.15,4.73,5.45
17.003,1.88,-2.61,3.86,5.03
17.013,1.42,-2.12,3.30,4.17
17.023,0.79,-1.36,2.47,2.93
17.033,0.30,-0.85,1.83,2.04
17.043,-0.22,-0.45,1.05,1.16
17.053,-0.86,-0.28,0.24,0.94
17.063,-1.53,-0.27,-0.13,1.56
17.073,-2.07,-0.45,-0.02,2.12
17.083,-2.53,-0.85,0.72,2.76
17.093,-3.02,-1.40,1.61,3.70
17.103,-3.28,-1.61,2.23,4.28
17.113,-3.38,-1.46,2.43,4.42
17.123,-3.39,-1.52,2.10,4.27
17.133,-3.25,-1.91,1.59,4.09
17.143,-3.03,-2.29,1.13,3.97
17.153,-2.64,-2.45,0.58,3.65
17.163,-1.94,-2.38,0.04,3.07
17.173,-0.83,-1.98,-0.42,2.19
17.183,0.73,-1.46,-0.56,1.72
17.193,2.64,-1.16,-1.16,3.11
17.203,4.33,-1.41,-2.27,5.08
17.213,5.26,-2.31,-2.95,6.46
17.223,5.70,-3.22,-2.64,7.06
17.233,5.92,-3.78,-3.83,8.00
17.243,5.77,-2.78,-5.80,8.64
17.253,4.60,-0.45,-5.50,7.18
17.263,3.12,-0.18,-3.12,4.42
17.273,2.00,-0.74,-1.80,2.79
17.283,1.42,-0.31,-0.97,1.74
17.293,1.52,1.54,0.06,2.16
17.303,1.63,3.95,2.02,4.73
17.313,0.52,5.30,3.58,6.41
17.323,-1.35,6.03,3.77,7.24
17.333,-2.29,6.90,3.10,7.90
17.343,-2.28,7.79,2.44,8.48
17.353,-2.50,7.29,2.03,7.97
17.363,-2.79,4.23,1.84,5.39
17.373,-2.73,1.96,1.78,3.80
17.383,-2.67,1.57,1.66,3.51
17.393,-2.75,1.47,1.43,3.43
17.403,-2.95,1.36,1.10,3.43
17.413,-3.39,1.70,1.30,4.01
17.423,-3.89,2.65,1.75,5.02
17.432,-4.16,3.66,1.66,5.78
17.443,-4.18,4.00,0.93,5.86
17.452,-3.67,2.88,0.33,4.68
17.463,-3.05,0.90,-0.85,3.29
17.472,-1.66,-0.20,-1.38,2.17
17.483,-0.38,-1.04,-0.85,1.40
17.493,-0.20,-0.91,-0.27,0.97
17.502,-0.83,-0.44,0.07,0.94
17.513,-1.21,-0.39,0.16,1.28
17.522,-1.20,-0.56,0.07,1.33
17.533,-0.83,-0.80,-0.16,1.16
17.543,-0.17,-0.98,-0.27,1.03
17.552,0.57,-1.26,-0.23,1.40
17.562,1.16,-1.47,-0.13,1.88
17.572,1.45,-1.52,-0.17,2.10
17.582,1.40,-1.55,-0.26,2.10
17.592,1.17,-1.57,-0.25,1.97
17.602,0.96,-1.41,-0.27,1.72
17.612,0.83,-1.21,-0.41,1.52
17.622,0.85,-0.83,-0.76,1.41
17.632,0.91,-0.57,-0.85,1.37
17.642,0.78,-0.54,-1.06,1.42
17.652,0.70,-0.52,-1.70,1.91
17.662,0.65,-0.58,-2.14,2.31
17.672,0.51,-0.64,-2.48,2.61
17.682,0.28,-0.77,-2.86,2.97
17.692,-0.01,-1.02,-3.18,3.34
17.702,-0.37,-1.46,-3.28,3.61
17.712,-0.84,-2.29,-2.99,3.86
17.722,-1.26,-3.60,-2.46,4.54
17.732,-1.19,-4.93,-1.96,5.44
17.742,-0.67,-5.78,-1.58,6.03
17.752,-0.13,-5.67,-1.76,5.94
17.762,-0.27,-4.26,-2.56,4.97
17.772,-1.38,-2.03,-3.66,4.41
17.782,-2.51,0.03,-4.94,5.54
17.792,-2.76,1.62,-5.51,6.37
17.802,-2.09,2.21,-5.24,6.06
17.812,-0.64,1.47,-4.52,4.80
17.822,1.08,-0.04,-3.64,3.80
17.832,2.81,-1.21,-3.04,4.31
17.842,3.97,-1.80,-2.84,5.20
17.852,4.23,-2.18,-2.22,5.25
17.862,3.65,-2.19,-0.89,4.35
17.872,2.62,-1.40,0.79,3.07
17.882,1.38,-0.11,2.04,2.47
17.892,0.13,1.78,2.11,2.76
17.902,-1.14,4.17,0.78,4.40
17.912,-1.99,5.83,-0.39,6.18
17.922,-1.86,7.54,-1.48,7.90
17.932,-0.85,8.97,-2.19,9.27
17.942,0.57,8.96,-1.57,9.11
17.952,2.23,7.82,-0.30,8.14
17.962,3.06,5.96,1.26,6.82
17.972,3.04,3.90,2.82,5.69
17.982,2.44,1.96,4.35,5.36
17.992,1.57,0.29,5.70,5.92
18.002,1.22,-1.20,5.95,6.19
18.012,1.51,-2.14,4.40,5.12
18.022,1.46,-2.44,3.55,4.55
18.032,1.12,-1.86,3.28,3.93
18.042,0.74,-0.89,2.67,2.91
18.052,0.43,-0.17,2.05,2.10
18.062,0.09,0.13,1.41,1.42
18.072,-0.39,0.11,0.69,0.80
18.082,-0.98,-0.13,0.39,1.06
18.092,-1.62,-0.56,0.62,1.83
18.102,-2.24,-1.03,1.06,2.69
18.112,-2.91,-1.60,1.51,3.65
18.122,-3.38,-1.79,1.87,4.26
18.132,-3.58,-1.68,1.86,4.37
18.141,-3.55,-1.79,1.67,4.31
18.151,-3.33,-2.10,1.37,4.17
18.161,-2.96,-2.33,0.89,3.87
18.171,-2.30,-2.37,0.35,3.32
18.181,-1.30,-2.23,-0.23,2.59
18.191,0.03,-1.84,-0.67,1.96
18.201,1.54,-1.49,-0.70,2.25
18.211,3.18,-1.33,-1.02,3.60
18.221,4.68,-1.79,-1.70,5.29
18.231,5.62,-2.81,-1.90,6.56
18.241,5.92,-3.68,-1.36,7.10
18.251,5.78,-4.33,-2.17,7.54
18.261,5.23,-3.37,-4.28,7.55
18.271,4.04,-0.89,-5.12,6.59
18.281,2.43,-0.19,-3.09,3.93
18.291,1.18,-0.37,-1.91,2.28
18.301,0.93,0.36,-2.22,2.43
18.311,1.24,2.22,-1.38,2.90
18.321,1.43,4.55,1.23,4.93
18.331,0.97,6.50,3.27,7.34
18.341,-0.24,7.56,3.43,8.30
18.351,-1.40,7.74,2.57,8.27
18.361,-2.18,6.31,1.86,6.94
18.371,-2.73,3.13,1.96,4.59
18.381,-2.78,1.30,1.49,3.41
18.391,-2.52,1.49,1.64,3.35
18.401,-2.18,1.73,2.81,3.95
18.411,-1.62,2.20,2.76,3.88
18.421,-1.35,2.75,1.35,3.34
18.431,-1.72,2.98,0.03,3.44
18.441,-2.35,3.19,0.06,3.96
18.451,-3.02,3.61,1.06,4.83
18.461,-3.37,3.68,1.44,5.19
18.471,-3.71,2.69,0.42,4.60
18.481,-3.17,0.64,-0.71,3.31
18.491,-2.15,-0.59,0.10,2.23
18.501,-1.52,-0.70,-0.01,1.67
18.511,-1.05,-0.63,-0.17,1.23
18.521,-1.21,-0.51,0.26,1.33
18.531,-1.56,-0.23,0.41,1.63
18.541,-1.66,-0.46,0.16,1.73
18.551,-1.55,-0.88,-0.20,1.79
18.561,-1.27,-0.98,-0.52,1.69
18.571,-0.71,-0.84,-0.50,1.21
18.581,0.12,-0.82,-0.26,0.87
18.591,0.90,-0.93,-0.16,1.31
18.601,1.40,-1.15,-0.31,1.84
18.611,1.54,-1.34,-0.19,2.05
18.621,1.49,-1.41,0.06,2.06
18.631,1.49,-1.36,0.02,2.02
18.641,1.43,-1.18,0.00,1.85
18.651,1.25,-0.89,-0.15,1.55
18.661,1.17,-0.50,-0.76,1.48
18.671,1.10,-0.27,-1.39,1.79
18.681,0.93,-0.15,-2.00,2.21
18.691,0.59,-0.16,-2.58,2.65
18.701,0.14,-0.35,-2.91,2.93
18.711,-0.27,-0.78,-3.12,3.23
18.721,-0.56,-1.41,-3.19,3.53
18.731,-0.95,-2.42,-2.96,3.94
18.741,-1.29,-3.65,-2.41,4.56
18.750,-1.32,-4.86,-1.80,5.35
18.761,-0.99,-5.76,-1.42,6.02
18.770,-0.48,-5.89,-1.47,6.09
18.780,-0.15,-4.85,-1.94,5.22
18.790,-0.52,-2.92,-2.63,3.96
18.801,-1.47,-0.84,-3.71,4.08
18.810,-2.18,1.06,-4.99,5.55
18.820,-2.00,2.39,-5.56,6.38
18.830,-1.19,2.45,-5.03,5.72
18.840,0.04,1.18,-4.35,4.51
18.850,1.60,-0.50,-3.71,4.08
18.860,3.05,-1.57,-3.10,4.63
18.870,3.95,-1.93,-2.39,5.01
18.880,4.03,-2.09,-1.41,4.75
18.890,3.29,-1.76,0.13,3.73
18.900,2.30,-0.73,1.34,2.76
18.910,1.19,0.56,2.03,2.42
18.920,0.09,2.86,1.66,3.31
18.930,-0.82,4.87,0.49,4.96
18.940,-1.46,6.54,-0.31,6.71
18.950,-0.99,8.12,-1.53,8.32
18.960,-0.21,8.76,-1.27,8.86
18.970,1.05,7.99,-0.44,8.07
18.980,2.17,6.32,0.99,6.76
18.990,2.46,4.33,2.26,5.48
19.000,2.50,2.50,2.90,4.57
19.010,2.05,0.86,3.93,4.52
19.020,1.12,-0.60,5.54,5.68
19.030,1.03,-1.78,5.23,5.62
19.040,1.14,-2.18,3.83,4.56
19.050,0.87,-1.85,3.38,3.95
19.060,0.49,-1.20,3.02,3.29
19.070,0.30,-0.47,2.09,2.16
19.080,0.15,-0.06,1.41,1.42
19.090,-0.14,0.16,0.66,0.69
19.100,-0.52,0.21,0.07,0.56
19.110,-0.98,-0.13,-0.09,1.00
19.120,-1.45,-0.62,0.41,1.63
19.130,-1.91,-1.13,1.23,2.54
19.140,-2.36,-1.61,1.94,3.45
19.150,-2.60,-1.70,2.19,3.80
19.160,-2.64,-1.47,2.06,3.66
19.170,-2.65,-1.59,1.80,3.58
19.180,-2.58,-1.81,1.37,3.43
19.190,-2.33,-2.08,0.80,3.23
19.200,-1.78,-2.22,0.19,2.85
19.210,-0.87,-2.15,-0.45,2.36
19.220,0.34,-1.78,-0.73,1.95
19.230,1.79,-1.34,-0.67,2.33
19.240,3.36,-1.28,-1.13,3.77
19.250,4.58,-1.79,-1.99,5.31
19.260,5.30,-2.67,-1.97,6.25
19.270,5.38,-3.43,-1.46,6.55
19.280,5.13,-3.96,-2.68,7.01
19.290,4.52,-2.70,-4.83,7.15
19.300,3.41,-0.60,-5.40,6.41
19.310,2.00,-0.27,-3.08,3.68
19.320,1.23,-0.43,-2.40,2.73
19.330,1.64,0.87,-2.69,3.27
19.339,2.46,2.92,-0.30,3.83
19.349,2.72,4.74,3.35,6.41
19.360,1.79,5.93,4.46,7.63
19.369,-0.22,6.20,3.36,7.06
19.380,-2.03,5.72,2.15,6.43
19.390,-3.09,4.84,1.89,6.04
19.400,-3.71,3.60,2.07,5.57
19.410,-3.57,2.68,1.85,4.83
19.420,-3.06,2.34,2.16,4.42
19.430,-2.59,2.33,2.70,4.41
19.439,-2.15,2.65,2.37,4.15
19.450,-1.87,2.89,1.06,3.60
19.459,-2.11,3.19,0.39,3.84
19.470,-2.62,3.44,0.72,4.38
19.479,-3.13,3.39,1.57,4.87
19.489,-3.33,2.99,1.37,4.68
19.499,-3.32,2.14,0.55,3.99
19.509,-3.31,0.75,-0.35,3.41
19.519,-2.19,-0.80,-0.13,2.34
19.530,-1.67,-1.07,-0.32,2.01
19.539,-1.55,-0.85,-0.62,1.87
19.549,-1.70,-0.60,-0.01,1.80
19.559,-1.94,-0.15,0.49,2.00
19.569,-1.81,-0.15,0.49,1.88
19.579,-1.42,-0.52,0.14,1.52
19.589,-0.89,-0.75,-0.33,1.21
19.599,-0.23,-0.86,-0.71,1.14
19.609,0.48,-0.90,-0.80,1.30
19.619,1.03,-1.04,-0.64,1.60
19.629,1.36,-1.16,-0.53,1.86
19.639,1.40,-1.26,-0.42,1.93
19.649,1.29,-1.30,-0.37,1.87
19.659,1.26,-1.27,-0.44,1.84
19.669,1.39,-1.20,-0.64,1.94
19.679,1.52,-1.15,-0.76,2.06
19.689,1.59,-1.16,-0.84,2.14
19.699,1.59,-1.20,-1.11,2.28
19.709,1.50,-1.17,-1.53,2.44
19.719,1.28,-1.08,-2.01,2.62
19.729,0.95,-0.99,-2.38,2.75
19.739,0.61,-0.99,-2.65,2.89
19.749,0.31,-1.10,-2.76,2.98
19.759,-0.05,-1.25,-2.70,2.98
19.769,-0.58,-1.62,-2.37,2.93
19.779,-1.10,-2.40,-1.92,3.26
19.789,-1.32,-3.50,-1.44,4.01
19.799,-1.29,-4.56,-0.69,4.79
19.809,-1.02,-4.98,-0.37,5.10
19.819,-0.70,-4.43,-0.78,4.55
19.829,-1.09,-2.91,-1.52,3.46
19.839,-2.05,-0.85,-2.90,3.65
19.849,-2.59,1.01,-4.78,5.53
19.859,-2.24,2.24,-5.89,6.69
19.869,-1.25,2.43,-5.30,5.97
19.879,0.04,1.35,-4.32,4.53
19.889,1.58,-0.11,-3.86,4.17
19.899,2.84,-1.29,-3.32,4.56
19.909,3.39,-2.11,-2.78,4.86
19.919,3.24,-2.65,-2.07,4.67
19.929,2.62,-2.59,-1.09,3.84
19.939,1.88,-1.85,0.04,2.63
19.949,0.88,-0.81,0.96,1.54
19.959,-0.24,0.33,1.76,1.81
19.969,-1.14,2.84,1.94,3.63
19.979,-1.44,4.94,0.90,5.23
19.989,-0.90,6.76,-0.84,6.87
19.999,-0.12,8.62,-2.05,8.86
20.009,0.69,9.29,-1.34,9.41
20.019,1.72,8.71,-0.09,8.88
20.029,2.58,6.81,0.33,7.29
20.038,2.95,4.27,1.28,5.35
20.048,2.91,1.94,3.46,4.92
20.059,2.51,-0.24,5.91,6.43
20.068,2.45,-1.87,6.07,6.80
20.079,2.08,-2.36,4.91,5.83
20.088,1.34,-1.63,3.98,4.50
20.099,0.72,-0.94,3.39,3.59
20.108,0.25,-0.42,2.44,2.48
20.118,-0.11,-0.05,1.39,1.39
20.128,-0.43,0.17,0.16,0.49
20.138,-0.85,0.13,-0.64,1.07
20.148,-1.35,-0.12,-0.93,1.65
20.158,-1.85,-0.35,-0.67,2.00
20.168,-2.42,-0.88,0.15,2.58
20.178,-2.82,-1.21,1.25,3.32
20.188,-3.05,-1.31,2.09,3.92
20.198,-3.12,-1.31,2.16,4.01
20.208,-3.17,-1.41,1.86,3.94
20.218,-3.19,-1.76,1.54,3.95
20.228,-2.97,-2.23,1.04,3.86
20.238,-2.52,-2.49,0.37,3.56
20.248,-1.87,-2.54,-0.23,3.16
20.258,-0.90,-2.28,-0.68,2.55
20.268,0.34,-1.97,-0.61,2.09
20.278,1.97,-1.75,-0.59,2.70
20.288,3.70,-1.84,-1.19,4.30
20.298,5.02,-2.40,-1.89,5.88
20.308,5.54,-3.15,-1.58,6.56
20.318,5.41,-3.57,-1.81,6.73
20.328,5.05,-3.42,-3.80,7.19
20.338,3.99,-1.30,-5.44,6.87
20.348,2.48,0.04,-4.28,4.95
20.358,1.35,-0.61,-2.40,2.82
20.368,1.24,-0.94,-2.15,2.65
20.378,1.50,0.25,-2.00,2.52
20.388,1.89,2.31,0.25,2.99
20.398,1.91,3.92,3.19,5.40
20.408,1.04,5.00,4.15,6.58
20.418,-0.62,6.25,3.06,6.99
20.428,-1.95,7.15,2.36,7.78
20.438,-2.66,6.90,1.65,7.57
20.448,-3.30,5.19,0.49,6.17
20.458,-3.64,3.46,0.45,5.04
20.468,-3.38,2.38,1.53,4.41
20.478,-3.01,1.84,1.79,3.95
20.488,-2.66,1.80,1.29,3.46
20.498,-2.64,1.89,1.11,3.43
20.508,-2.78,2.35,1.61,3.98
20.518,-2.75,2.74,1.78,4.27
20.528,-2.55,2.81,1.37,4.04
20.538,-2.57,2.14,0.92,3.47
20.548,-2.69,0.68,-0.11,2.78
20.558,-2.12,-0.69,-0.95,2.43
20.568,-1.22,-1.27,-1.02,2.04
20.578,-1.05,-1.27,-0.90,1.87
20.588,-1.06,-0.82,-0.77,1.55
20.598,-1.40,-0.36,-0.26,1.46
20.608,-1.49,0.06,0.19,1.51
20.617,-1.15,-0.19,0.40,1.23
20.628,-0.59,-0.69,0.25,0.94
20.637,0.02,-1.03,-0.10,1.04
20.648,0.64,-1.17,-0.36,1.38
20.658,1.11,-1.24,-0.23,1.68
20.667,1.36,-1.34,-0.08,1.92
20.678,1.41,-1.36,-0.08,1.96
20.687,1.29,-1.32,-0.26,1.87
20.697,1.10,-1.20,-0.50,1.70
20.707,0.92,-1.06,-0.59,1.52
20.718,0.85,-0.90,-0.59,1.37
20.727,0.84,-0.72,-0.67,1.29
20.737,0.80,-0.63,-0.90,1.36
20.747,0.68,-0.59,-1.25,1.54
20.757,0.46,-0.52,-1.65,1.79
20.767,0.15,-0.52,-2.07,2.13
20.777,-0.20,-0.60,-2.36,2.45
20.787,-0.52,-0.79,-2.57,2.74
20.797,-0.74,-1.08,-2.67,2.98
20.807,-1.01,-1.41,-2.56,3.09
20.817,-1.34,-1.77,-2.31,3.20
20.827,-1.68,-2.51,-1.93,3.59
20.837,-1.91,-3.64,-1.55,4.39
20.847,-1.80,-4.65,-1.50,5.21
20.857,-1.42,-5.03,-1.75,5.51
20.867,-1.12,-4.31,-2.16,4.95
20.877,-1.29,-2.77,-2.80,4.15
20.887,-2.16,-0.95,-3.52,4.24
20.897,-2.52,0.77,-4.47,5.19
20.907,-1.95,1.80,-4.74,5.43
20.917,-0.81,1.66,-4.27,4.65
20.927,0.58,0.95,-3.82,3.98
20.937,2.01,0.11,-3.65,4.17
20.947,2.97,-0.70,-3.32,4.51
20.957,3.30,-1.12,-2.58,4.34
20.967,3.05,-1.25,-1.47,3.61
20.977,2.43,-0.88,-0.06,2.59
20.987,1.69,-0.13,1.43,2.22
20.997,1.04,0.74,2.19,2.54
21.007,0.31,2.57,1.78,3.14
21.017,-0.29,4.52,0.83,4.61
21.027,-0.44,5.98,0.00,5.99
21.037,0.29,7.48,-1.09,7.56
21.047,1.48,8.12,-1.38,8.37
21.057,2.54,7.43,-0.53,7.87
21.067,3.38,6.17,0.56,7.06
21.077,3.31,4.09,1.87,5.58
21.087,2.51,2.11,3.47,4.77
21.097,1.69,0.59,4.64,4.97
21.107,1.05,-0.84,5.02,5.19
21.117,0.58,-2.10,4.94,5.40
21.127,0.33,-2.47,3.81,4.56
21.137,0.10,-2.28,3.13,3.87
21.147,-0.17,-1.52,2.86,3.24
21.157,-0.32,-0.32,2.28,2.32
21.167,-0.36,0.53,1.59,1.72
21.177,-0.32,0.84,0.82,1.21
21.187,-0.30,0.72,0.27,0.82
21.197,-0.46,0.39,0.17,0.62
21.207,-0.79,-0.01,0.40,0.89
21.217,-1.34,-0.35,1.05,1.74
21.227,-1.99,-0.64,1.80,2.76
21.237,-2.59,-0.70,2.23,3.49
21.247,-3.04,-0.64,2.29,3.86
21.257,-3.27,-0.66,2.04,3.91
21.267,-3.29,-0.79,1.72,3.80
21.277,-3.04,-1.08,1.36,3.50
21.287,-2.69,-1.28,0.96,3.12
21.297,-2.22,-1.36,0.47,2.65
21.306,-1.53,-1.46,-0.18,2.12
21.317,-0.44,-1.37,-0.54,1.54
21.327,0.91,-1.21,-0.50,1.59
21.337,2.36,-1.27,-0.68,2.77
21.347,3.61,-1.88,-1.34,4.29
21.356,4.29,-2.89,-1.63,5.42
21.366,4.53,-3.70,-1.42,6.02
21.376,4.25,-4.52,-1.93,6.49
21.386,3.51,-4.07,-3.54,6.43
21.396,2.97,-2.92,-4.57,6.18
21.406,2.57,-2.09,-3.85,5.08
21.416,2.15,-1.44,-2.49,3.59
21.426,2.05,-0.56,-1.05,2.38
21.436,1.97,0.86,0.96,2.35
21.446,2.73,2.43,0.77,3.73
21.456,3.13,3.99,1.55,5.30
21.466,2.56,4.89,2.90,6.23
21.476,1.20,5.29,2.68,6.05
21.486,-0.45,4.91,1.22,5.08
21.496,-1.57,4.25,0.81,4.61
21.506,-2.24,3.31,0.63,4.05
21.516,-2.31,2.69,1.04,3.69
21.526,-1.89,3.04,2.30,4.26
21.536,-1.53,3.64,2.79,4.84
21.546,-1.19,4.93,2.19,5.53
21.556,-1.29,5.48,0.92,5.70
21.566,-2.05,4.06,0.59,4.58
21.576,-2.82,1.27,1.49,3.44
21.586,-3.35,-0.46,1.14,3.56
21.596,-3.96,-0.65,0.61,4.06
21.606,-4.56,-0.28,-0.49,4.59
21.616,-5.07,-0.23,-0.08,5.07
21.626,-4.48,-0.33,1.17,4.64
21.636,-2.71,0.11,1.34,3.02
21.646,-0.55,1.43,1.27,1.99
21.656,1.51,1.25,-0.72,2.09
21.666,3.93,-2.11,-2.03,4.90
21.676,1.38,0.38,2.03,2.48
21.686,-1.78,3.36,1.24,4.00
21.696,-3.32,3.62,-1.28,5.08
21.706,-2.51,0.98,-1.01,2.88
21.716,-0.99,-0.86,0.29,1.34
21.726,-0.46,-1.55,1.19,2.00
21.736,-0.68,-1.97,1.57,2.61
21.746,-1.03,-2.72,1.36,3.21
21.756,0.07,-2.88,1.93,3.47
21.766,0.50,-1.49,0.98,1.86
21.776,-0.08,-0.09,-0.21,0.24
21.786,-0.09,1.00,-0.15,1.01
21.796,0.40,1.38,-0.41,1.50
21.806,0.76,0.93,-1.39,1.84
21.816,0.50,0.57,-1.53,1.71
21.826,-0.39,0.06,-1.26,1.32
21.836,-1.10,-0.57,-1.24,1.75
21.846,-1.39,-0.82,-1.44,2.16
21.856,-1.60,-0.75,-1.50,2.32
21.866,-1.62,-0.89,-1.66,2.48
21.876,-1.80,-1.28,-1.82,2.86
21.886,-1.86,-1.56,-2.01,3.15
21.896,-1.57,-1.69,-2.27,3.24
21.906,-1.35,-1.87,-2.45,3.37
21.916,-1.06,-1.95,-2.78,3.55
21.926,-1.06,-2.12,-2.86,3.72
21.936,-1.58,-2.38,-2.75,3.96
21.946,-1.50,-2.22,-2.67,3.79
21.955,-0.76,-1.49,-2.42,2.95
21.966,-0.16,-0.61,-1.89,1.99
21.976,0.38,-0.43,-1.16,1.29
21.986,0.46,-0.13,-1.05,1.15
21.995,-0.28,0.46,-1.40,1.50
22.005,-0.74,1.13,-1.40,1.95
22.015,-0.65,2.09,-1.17,2.48
22.025,0.32,2.99,-0.95,3.15
22.035,0.48,4.27,-0.84,4.38
22.045,0.56,5.00,-0.52,5.06
22.055,0.96,5.06,-0.44,5.17
22.065,1.27,5.17,0.10,5.32
22.075,1.78,5.09,1.34,5.55
22.085,2.17,4.98,2.27,5.89
22.095,2.37,4.45,2.50,5.62
22.105,1.61,3.28,3.02,4.75
22.115,0.81,2.29,4.00,4.68
22.125,0.57,3.01,4.35,5.32
22.135,0.29,6.25,4.02,7.44
22.145,0.58,6.67,2.93,7.31
22.155,2.76,6.57,1.27,7.24
22.165,3.69,7.60,2.17,8.72
22.175,3.76,6.78,1.25,7.86
22.185,2.86,6.46,1.11,7.15
22.195,2.35,5.38,0.35,5.88
22.205,2.02,4.20,0.43,4.68
22.215,1.73,2.77,1.28,3.51
22.225,1.44,2.04,1.50,2.91
22.235,1.20,1.59,1.41,2.44
22.245,1.24,1.38,1.21,2.22
22.255,1.74,1.54,0.94,2.51
22.265,2.47,1.17,1.01,2.91
22.275,3.17,0.26,1.09,3.36
22.285,3.75,-0.59,1.25,3.99
22.295,3.69,-0.54,1.58,4.05
22.305,3.35,0.16,2.53,4.20
22.315,3.74,0.26,3.13,4.89
22.325,4.74,-0.99,1.56,5.09
22.335,5.73,-2.11,1.12,6.21
22.345,6.46,-2.81,1.48,7.20
22.355,6.87,-2.91,1.21,7.56
22.365,6.96,-2.35,0.40,7.36
22.375,6.72,-1.88,-0.22,6.98
22.385,6.29,-2.13,-0.57,6.66
22.395,5.93,-2.78,-0.76,6.60
22.405,5.56,-3.81,-0.24,6.75
22.415,6.39,-4.16,-0.06,7.62
22.425,7.14,-3.88,0.02,8.13
22.435,7.42,-3.53,-0.22,8.22
22.445,7.13,-3.07,-0.81,7.80
22.455,6.15,-2.13,-1.30,6.64
22.465,5.11,-1.77,-2.12,5.81
22.475,3.62,-2.14,-2.32,4.80
22.485,2.35,-3.00,-2.62,4.62
22.495,1.32,-3.40,-2.18,4.25
22.505,0.16,-2.77,-1.44,3.13
22.515,-0.87,-1.13,-0.73,1.60
22.525,-1.50,0.28,-0.77,1.71
22.534,-1.94,1.27,-0.73,2.43
22.545,-1.72,2.85,-2.09,3.93
22.555,-1.58,3.36,-2.03,4.23
22.565,-2.17,3.96,0.47,4.54
22.574,-2.64,5.18,-0.71,5.86
22.585,-3.03,5.70,-3.24,7.22
22.594,-3.69,6.38,-2.58,7.81
22.604,-4.05,6.07,-1.82,7.52
22.614,-3.96,4.95,-0.20,6.34
22.624,-3.32,3.83,1.18,5.21
22.634,-2.69,3.46,3.71,5.74
22.645,-3.07,1.93,13.02,13.51
22.654,-2.40,-0.34,7.53,7.91
22.664,-3.87,0.57,8.96,9.78
22.674,-6.24,1.32,4.77,7.96
22.685,-6.82,4.14,0.19,7.98
22.694,-6.02,6.36,-2.31,9.06
22.704,-4.65,5.99,-3.88,8.52
22.714,-3.70,4.21,-4.98,7.50
22.724,-0.35,2.66,-6.58,7.11
22.734,3.21,2.60,-4.96,6.46
22.744,4.27,3.29,0.55,5.42
22.754,2.08,1.81,4.20,5.02
22.764,-1.69,-1.81,10.44,10.73
22.774,-1.85,-4.73,13.94,14.84
22.784,-1.11,-4.33,12.72,13.48
22.794,-0.31,-1.90,10.82,10.99
22.804,1.14,-2.13,5.68,6.17
22.814,2.12,-3.50,2.50,4.79
22.824,4.12,-2.88,-0.51,5.05
22.834,4.42,-1.79,-3.21,5.74
22.844,3.49,-1.72,-4.94,6.28
22.854,1.25,-1.64,-4.28,4.75
22.864,-1.33,-3.05,-3.82,5.07
22.874,-3.75,-3.39,-1.20,5.20
22.884,-1.73,-1.47,2.55,3.41
22.894,-0.17,-0.88,0.28,0.94
22.904,1.99,-0.14,0.24,2.01
22.914,2.79,-0.55,0.17,2.85
22.924,1.89,-1.04,-0.93,2.35
22.934,0.89,-0.29,-0.98,1.36
22.944,0.13,0.26,-1.38,1.41
22.954,-0.12,0.88,-2.08,2.26
22.964,-0.42,1.31,-1.53,2.06
22.974,-0.93,0.89,-0.45,1.36
22.984,-1.01,0.05,0.57,1.16
22.994,-1.03,-0.60,1.31,1.77
23.004,-0.82,-0.75,0.57,1.26
23.014,-0.21,-0.34,0.91,1.00
23.024,0.20,-0.57,1.32,1.45
23.034,0.56,-0.36,0.82,1.05
23.044,0.39,0.35,1.07,1.19
23.054,0.79,0.99,0.69,1.44
23.064,0.90,-0.25,0.09,0.94
23.074,0.45,-1.82,0.94,2.09
23.084,0.16,-2.08,1.90,2.82
23.094,0.16,-1.23,1.77,2.16
23.104,-0.35,-1.03,1.69,2.01
23.114,-0.37,-0.91,0.90,1.33
23.124,0.01,-0.31,-0.30,0.43
23.134,0.10,-0.30,-0.71,0.78
23.144,0.39,-0.41,-1.00,1.15
23.154,0.36,-1.15,-0.32,1.25
23.164,-0.13,-1.90,0.71,2.03
23.174,-0.56,-1.64,0.34,1.77
23.183,-0.79,-0.65,-0.27,1.06
23.194,-0.48,-0.40,-1.16,1.32
23.204,0.31,-0.12,-1.56,1.59
23.214,0.78,-0.56,-1.05,1.43
23.223,0.80,-1.22,-0.59,1.57
23.234,0.17,-1.43,0.68,1.59
23.243,-0.18,-1.72,1.21,2.11
23.253,-0.07,-1.50,0.98,1.80
23.264,0.27,-1.26,0.91,1.58
23.273,0.52,-1.38,0.74,1.65
23.284,0.69,-1.12,0.46,1.40
23.293,0.80,-0.64,-0.07,1.03
23.304,0.76,0.04,-0.73,1.05
23.313,0.46,0.76,-0.70,1.13
23.323,-0.04,0.21,-0.25,0.32
23.333,-0.49,0.10,-0.10,0.51
23.343,-0.58,0.18,-0.34,0.69
23.353,-0.58,-0.19,-0.65,0.89
23.363,-0.53,0.09,-0.92,1.06
23.373,-0.54,0.20,-1.10,1.24
23.383,-0.50,0.20,-1.03,1.16
23.393,-0.09,-0.05,-1.05,1.05
23.403,0.55,-0.81,-1.45,1.75
23.413,0.30,-0.37,-0.86,0.98
23.423,0.29,-0.63,-0.99,1.21
23.433,0.55,-0.57,-1.23,1.47
23.443,0.71,-0.68,-1.40,1.71
23.453,0.52,-0.80,-1.45,1.73
23.463,-0.00,-0.47,-0.70,0.84
23.473,-0.56,-0.04,-0.22,0.61
23.483,-0.77,0.02,-0.14,0.78
23.493,-0.56,-0.33,0.05,0.65
23.503,-0.11,-0.65,0.46,0.80
23.513,0.17,-0.78,0.64,1.02
23.523,0.36,-0.76,0.43,0.94
23.533,0.54,-0.54,-0.03,0.77
23.543,0.72,-0.20,-0.53,0.92
