time,ax,ay,az,atotal
0.000,-0.21,0.01,-1.02,1.04
0.010,0.00,0.27,-0.71,0.76
0.020,0.26,0.28,-0.37,0.53
0.030,0.44,0.04,-0.19,0.48
0.040,0.51,-0.04,0.25,0.58
0.050,0.46,-0.02,0.66,0.80
0.060,0.29,-0.12,0.96,1.01
0.070,-0.07,-0.44,0.96,1.06
0.080,-0.15,-0.36,0.69,0.79
0.090,-0.11,-0.21,0.25,0.34
0.100,-0.10,-0.06,0.14,0.18
0.110,-0.08,0.04,0.06,0.11
0.120,0.12,0.04,0.04,0.13
0.130,0.29,0.02,-0.09,0.31
0.140,0.00,-0.33,-0.25,0.41
0.150,0.16,-0.41,-0.44,0.62
0.160,0.04,-0.20,-0.27,0.34
0.170,-0.21,-0.12,0.12,0.27
0.180,-0.32,-0.01,0.34,0.47
0.190,-0.39,-0.16,0.20,0.47
0.200,-0.04,-0.16,0.09,0.18
0.210,0.22,-0.22,0.12,0.34
0.220,0.38,-0.24,0.02,0.45
0.230,0.25,-0.26,-0.35,0.51
0.240,0.02,-0.33,-0.80,0.86
0.250,0.04,-0.21,-1.15,1.17
0.260,0.91,0.39,-1.37,1.69
0.270,1.14,0.23,-1.43,1.84
0.280,0.29,-0.84,-1.28,1.56
0.290,-0.01,-1.76,-1.16,2.11
0.300,0.07,-2.04,-0.99,2.27
0.310,-0.03,-1.92,-0.81,2.09
0.319,-0.40,-1.44,-0.59,1.60
0.330,-0.82,-0.60,-0.35,1.07
0.340,-0.86,-0.07,-0.10,0.87
0.350,-0.54,-0.06,0.07,0.55
0.360,-0.13,-0.26,0.01,0.30
0.369,0.19,-0.46,0.15,0.52
0.380,0.24,-0.57,0.49,0.79
0.390,0.12,-0.85,0.93,1.27
0.400,0.02,-1.09,1.45,1.82
0.410,-0.19,-0.98,1.86,2.11
0.420,-0.48,-0.64,2.00,2.15
0.430,-0.62,-0.36,1.83,1.97
0.440,-0.43,0.11,1.05,1.14
0.450,-0.02,1.50,-0.09,1.50
0.460,0.07,1.41,0.69,1.57
0.469,0.68,1.61,1.52,2.32
0.480,0.96,1.23,1.81,2.39
0.489,1.31,1.19,1.78,2.51
0.500,1.48,1.35,1.66,2.60
0.509,1.26,1.20,1.42,2.25
0.519,0.96,0.86,1.15,1.73
0.529,0.87,0.06,1.00,1.33
0.539,1.01,-0.96,1.02,1.73
0.549,1.28,-1.93,0.88,2.48
0.559,1.83,-2.38,0.73,3.09
0.569,2.47,-2.44,0.79,3.56
0.579,3.10,-2.97,1.40,4.52
0.589,3.38,-3.25,2.17,5.16
0.599,3.30,-2.47,2.83,5.00
0.609,2.28,-1.27,4.17,4.92
0.619,1.18,-0.68,5.79,5.95
0.629,0.93,-0.07,6.50,6.57
0.640,0.98,-0.64,6.20,6.31
0.649,0.43,-1.73,5.18,5.48
0.659,-0.56,-2.64,1.56,3.12
0.669,-0.67,-2.93,-6.04,6.74
0.679,0.73,-2.32,-2.27,3.33
0.689,-0.01,-2.20,-0.27,2.22
0.699,0.49,-0.60,3.04,3.13
0.709,0.21,0.52,6.57,6.59
0.719,0.01,0.46,6.65,6.66
0.729,0.13,-1.48,3.89,4.16
0.739,-1.33,-2.30,1.96,3.30
0.749,-1.55,-3.66,1.39,4.21
0.759,-0.98,-5.01,1.78,5.40
0.769,-2.41,-2.92,2.64,4.62
0.779,-2.88,-1.41,3.12,4.48
0.789,-3.33,-2.58,4.22,5.96
0.799,-3.56,-4.00,5.27,7.51
0.809,-3.03,-3.42,7.46,8.75
0.819,-2.54,-2.40,9.01,9.67
0.829,-2.16,-1.73,8.05,8.51
0.839,-3.27,-1.40,7.71,8.50
0.849,-5.64,-1.30,7.85,9.75
0.859,-7.54,0.19,6.14,9.73
0.869,-9.44,2.20,4.32,10.61
0.879,-11.14,3.84,3.83,12.39
0.889,-11.42,4.42,3.43,12.72
0.899,-9.15,5.30,3.07,11.01
0.909,-6.30,6.46,1.78,9.19
0.919,-4.27,7.84,0.31,8.93
0.929,-3.29,8.28,-0.69,8.93
0.939,-3.06,8.34,-1.09,8.95
0.949,-3.11,8.12,-0.90,8.74
0.959,-1.95,8.60,0.60,8.84
0.969,0.89,9.57,0.90,9.66
0.980,4.80,9.95,-0.58,11.06
0.990,8.66,11.05,-2.01,14.18
0.999,9.29,12.06,-3.98,15.73
1.010,8.98,10.92,-5.80,15.28
1.020,9.15,10.85,-7.53,16.07
1.029,8.59,9.36,-6.91,14.46
1.039,7.86,6.08,-6.71,11.99
1.048,7.72,4.03,-7.07,11.22
1.058,7.64,3.27,-7.37,11.11
1.068,7.64,3.97,-7.11,11.17
1.079,7.95,5.85,-6.99,12.09
1.088,8.20,6.60,-6.78,12.52
1.099,8.47,5.15,-4.94,11.07
1.109,8.97,0.79,-3.18,9.55
1.118,9.14,-6.11,-1.98,11.17
1.128,7.77,-7.38,-0.14,10.72
1.138,5.59,-8.22,-1.26,10.02
1.149,5.25,-8.25,-4.05,10.58
1.158,4.59,-5.80,-0.58,7.41
1.169,4.13,-4.70,0.49,6.27
1.178,4.42,-5.27,2.71,7.40
1.188,4.18,-7.02,3.98,9.09
1.198,4.02,-7.30,4.95,9.69
1.208,3.75,-6.90,5.95,9.85
1.218,2.52,-6.24,5.89,8.94
1.228,0.85,-4.65,2.88,5.54
1.238,-0.89,-2.05,-1.59,2.74
1.248,-2.03,0.01,-3.47,4.02
1.258,-2.13,-0.01,-2.36,3.18
1.268,-0.97,-0.98,-1.27,1.88
1.278,-0.26,-1.96,-0.23,1.99
1.288,-0.41,-2.55,0.84,2.72
1.298,0.14,-2.25,1.42,2.67
1.308,0.02,-2.50,4.09,4.79
1.318,-0.35,-3.11,5.16,6.04
1.328,0.10,-3.14,2.71,4.15
1.338,0.38,-1.90,0.09,1.94
1.348,0.15,-0.85,-2.94,3.06
1.358,1.25,0.69,-4.29,4.52
1.368,2.96,1.55,-4.45,5.56
1.378,3.61,0.19,-5.01,6.18
1.388,3.28,-0.32,-2.18,3.95
1.398,2.91,-0.86,0.33,3.05
1.408,3.95,-1.25,-0.03,4.14
1.418,5.01,-1.48,1.03,5.32
1.428,5.23,-1.46,0.78,5.49
1.438,4.29,-1.79,-0.30,4.66
1.448,3.20,0.27,-0.41,3.24
1.458,4.89,4.25,-3.18,7.21
1.468,7.08,5.63,-4.72,10.21
1.478,8.35,5.51,-3.87,10.73
1.488,7.43,5.45,-2.06,9.45
1.498,5.84,5.05,-0.39,7.73
1.508,3.80,4.65,1.76,6.26
1.518,0.59,3.71,2.12,4.32
1.528,-2.82,2.86,1.75,4.39
1.538,-4.86,3.05,0.40,5.75
1.548,-4.39,2.62,-0.78,5.17
1.558,-2.20,1.34,-0.83,2.70
1.568,0.48,-0.14,-0.76,0.91
1.578,2.44,-1.07,-0.45,2.70
1.588,4.02,-1.76,-0.27,4.39
1.598,5.11,-2.93,1.49,6.08
1.608,5.59,-3.50,1.66,6.80
1.618,3.80,-4.05,-0.35,5.56
1.628,1.29,-4.72,-2.27,5.39
1.638,-0.24,-5.26,-2.26,5.73
1.648,-1.45,-5.13,-1.53,5.55
1.658,-1.35,-4.01,-0.28,4.24
1.668,0.31,-2.87,0.09,2.89
1.677,1.54,-1.89,-0.13,2.44
1.687,1.73,-1.41,-0.11,2.24
1.697,1.35,-1.36,-0.38,1.95
1.707,0.94,-1.53,-1.12,2.11
1.717,0.68,-1.77,-1.51,2.42
1.727,0.70,-2.40,-1.56,2.94
1.737,1.06,-3.13,-1.16,3.50
1.747,1.39,-3.83,-0.67,4.13
1.757,1.56,-4.75,-0.20,5.00
1.768,1.02,-5.31,0.05,5.41
1.777,0.49,-3.51,0.21,3.55
1.787,-0.15,-0.82,0.77,1.14
1.797,-0.37,1.01,1.36,1.73
1.808,-0.06,2.29,1.28,2.63
1.817,1.04,1.37,0.26,1.74
1.827,2.27,0.07,-0.02,2.27
1.837,2.82,-0.04,0.81,2.94
1.847,2.97,0.02,1.07,3.16
1.857,3.19,0.63,1.91,3.77
1.867,3.60,1.35,1.97,4.32
1.877,4.43,2.87,1.70,5.55
1.887,5.67,5.61,0.72,8.01
1.897,4.91,10.04,-6.34,12.85
1.907,1.06,14.44,-16.75,22.14
1.917,-3.16,11.52,-10.62,15.98
1.927,-3.53,3.82,-0.25,5.20
1.937,-3.47,0.32,2.97,4.58
1.947,-2.59,-1.09,3.53,4.51
1.957,-1.73,-1.46,1.61,2.78
1.967,-1.52,-1.41,0.63,2.17
1.977,-1.63,-1.00,0.27,1.94
1.987,-1.84,-0.47,0.21,1.91
1.997,-1.76,0.04,0.44,1.81
2.007,-1.55,0.66,1.34,2.15
2.017,-1.70,1.22,2.69,3.40
2.027,-1.36,2.02,1.49,2.85
2.037,-0.90,2.86,-1.14,3.21
2.047,-1.50,2.80,0.21,3.18
2.057,-2.12,1.81,0.80,2.90
2.067,-1.84,1.33,-0.35,2.30
2.077,-1.96,0.06,0.04,1.96
2.087,-1.87,-1.58,1.71,2.98
2.097,-2.86,-2.50,5.12,6.37
2.107,-2.55,-2.62,-1.71,4.03
2.117,-1.81,-2.42,-6.12,6.82
2.127,-2.31,-1.05,-3.23,4.11
2.137,-2.34,0.85,-0.52,2.55
2.147,-1.77,1.90,0.36,2.62
2.157,-0.50,1.51,-1.18,1.98
2.167,0.76,0.20,-2.47,2.59
2.177,1.56,-1.19,-2.32,3.04
2.187,1.27,-1.57,-1.21,2.35
2.197,1.23,-1.18,-0.68,1.83
2.207,1.68,-1.07,0.05,1.99
2.217,1.77,-1.05,0.31,2.08
2.227,1.59,-1.07,0.40,1.95
2.237,1.59,-1.07,0.15,1.92
2.247,1.87,-1.09,-0.65,2.26
2.257,2.13,-0.64,-0.93,2.41
2.267,1.48,-0.97,-1.06,2.07
2.277,-2.76,-4.50,-1.24,5.42
2.287,-1.15,-4.91,-2.24,5.51
2.297,2.88,-3.91,-3.53,6.00
2.307,1.84,-1.49,-1.81,2.98
2.317,0.91,-0.19,-2.25,2.43
2.327,0.81,0.53,-3.07,3.22
2.337,0.41,0.16,-2.23,2.28
2.346,0.84,-0.40,-1.90,2.11
2.357,1.29,-0.25,-1.60,2.06
2.367,1.52,-0.25,-1.39,2.07
2.377,1.86,-0.06,-1.18,2.21
2.386,2.32,-0.38,-2.08,3.13
2.396,3.06,-1.85,-2.80,4.54
2.407,3.20,-2.25,-3.14,5.01
2.417,2.31,-1.70,-3.14,4.26
2.427,1.43,-1.41,-3.16,3.75
2.436,0.60,-0.43,-3.76,3.83
2.446,-0.05,0.94,-4.58,4.68
2.456,-0.22,1.57,-4.79,5.05
2.466,0.00,1.29,-4.64,4.82
2.476,0.64,0.56,-4.52,4.60
2.486,1.66,-0.03,-4.57,4.86
2.496,2.81,-0.29,-4.63,5.42
2.506,3.40,-1.30,-3.94,5.37
2.516,3.66,-2.19,-3.08,5.26
2.526,2.98,-1.10,-2.14,3.83
2.536,1.93,-0.54,-1.24,2.36
2.546,0.79,-0.81,-0.09,1.13
2.556,-0.54,-1.02,0.49,1.26
2.566,-1.73,-0.20,0.66,1.86
2.576,-2.11,1.58,1.40,2.99
2.586,-2.33,2.29,1.27,3.50
2.596,-2.67,3.07,0.22,4.08
2.606,-2.98,3.58,-0.53,4.69
2.616,-3.36,3.48,-0.15,4.84
2.626,-3.20,3.86,0.51,5.04
2.636,-2.66,3.93,1.34,4.93
2.646,-1.59,3.14,2.31,4.21
2.656,-0.26,2.70,2.84,3.93
2.666,0.85,2.28,2.98,3.85
2.676,1.12,1.51,2.74,3.33
2.686,0.97,1.33,1.94,2.55
2.696,0.72,0.88,1.44,1.83
2.706,0.43,0.38,1.63,1.73
2.716,-0.00,-0.37,1.38,1.43
2.726,-0.37,-1.62,1.01,1.95
2.736,-0.53,-1.83,1.05,2.18
2.746,-1.13,-1.19,1.07,1.96
2.756,-1.75,-0.68,1.11,2.18
2.766,-2.45,-0.64,1.42,2.90
2.776,-2.88,-0.37,1.80,3.42
2.786,-3.00,-0.11,2.35,3.82
2.796,-2.85,-0.13,2.20,3.61
2.806,-2.53,0.03,1.75,3.08
2.816,-2.15,0.18,1.50,2.63
2.826,-1.67,0.08,1.49,2.24
2.836,-1.29,-0.38,1.29,1.86
2.846,-0.89,-0.80,0.99,1.55
2.856,-0.45,-1.05,0.74,1.37
2.866,0.11,-1.34,0.16,1.35
2.876,0.78,-1.53,-0.74,1.87
2.886,1.30,-1.66,-1.44,2.56
2.896,1.75,-1.91,-1.93,3.23
2.906,2.14,-2.11,-2.44,3.88
2.916,2.54,-2.29,-2.69,4.35
2.926,2.82,-2.34,-2.75,4.58
2.936,3.31,-2.03,-2.88,4.84
2.946,3.73,-1.19,-3.06,4.97
2.956,3.97,-0.20,-3.43,5.25
2.966,3.76,0.23,-3.79,5.35
2.976,2.95,0.30,-3.77,4.79
2.986,2.17,0.46,-2.60,3.42
2.996,1.69,1.94,-1.37,2.91
3.006,1.28,4.00,-0.35,4.21
3.016,0.38,6.06,0.76,6.12
3.026,-1.33,7.46,1.06,7.65
3.035,-3.73,6.13,1.42,7.31
3.045,-4.99,3.48,2.72,6.66
3.056,-5.43,2.02,2.77,6.42
3.066,-5.13,1.26,1.53,5.51
3.076,-4.37,1.32,2.22,5.07
3.085,-2.66,1.95,3.14,4.55
3.096,-1.13,2.41,2.87,3.91
3.106,-0.58,2.65,1.40,3.05
3.115,-0.73,2.95,0.70,3.12
3.125,-1.19,2.95,0.72,3.26
3.136,-1.93,2.28,1.22,3.23
3.145,-2.51,1.45,1.28,3.17
3.155,-2.47,0.82,0.15,2.61
3.165,-2.17,0.10,-0.89,2.35
3.175,-1.69,-0.72,-1.09,2.14
3.185,-1.35,-1.71,-1.13,2.45
3.195,-1.72,-1.95,-0.76,2.71
3.205,-1.15,-1.11,-0.24,1.61
3.215,-0.75,-0.53,0.02,0.92
3.225,-0.37,-0.56,0.73,0.99
3.235,0.02,-1.06,0.63,1.23
3.245,0.33,-1.69,-0.03,1.72
3.255,0.33,-1.83,0.04,1.86
3.265,0.13,-1.63,0.17,1.64
3.275,0.05,-1.48,0.16,1.49
3.285,-0.01,-1.21,0.21,1.23
3.295,0.08,-0.98,0.15,1.00
3.305,-0.09,-0.75,0.22,0.79
3.315,-0.02,-0.70,-0.16,0.72
3.325,0.27,-0.48,-0.64,0.85
3.335,0.36,-0.27,-0.97,1.07
3.345,0.34,-0.30,-1.27,1.35
3.355,0.22,-0.45,-1.69,1.77
3.365,0.02,-0.55,-2.10,2.17
3.375,-0.19,-0.60,-2.53,2.60
3.385,-0.35,-0.68,-2.90,3.00
3.395,-0.50,-0.94,-3.19,3.36
3.405,-0.57,-1.42,-3.31,3.65
3.415,-0.53,-2.25,-3.12,3.89
3.425,-0.36,-3.40,-2.71,4.36
3.435,-0.15,-4.53,-2.06,4.98
3.445,0.15,-5.24,-1.71,5.51
3.455,0.27,-5.30,-1.89,5.63
3.465,-0.16,-4.22,-2.66,4.99
3.475,-1.14,-2.29,-3.93,4.68
3.485,-2.12,-0.46,-5.42,5.84
3.495,-2.60,0.73,-6.49,7.03
3.505,-2.27,0.90,-6.11,6.58
3.515,-1.47,0.27,-5.54,5.74
3.525,0.16,-0.57,-5.19,5.23
3.535,2.28,-1.35,-4.24,5.00
3.545,4.05,-1.76,-3.17,5.43
3.555,4.78,-1.82,-2.41,5.65
3.565,4.36,-1.23,-1.08,4.66
3.575,3.15,-0.50,0.59,3.25
3.585,1.73,0.25,1.38,2.23
3.595,-0.14,1.98,1.38,2.42
3.605,-2.11,4.72,0.98,5.27
3.615,-3.29,6.53,-0.58,7.33
3.625,-3.78,7.98,-2.18,9.10
3.635,-3.59,9.42,-3.21,10.58
3.645,-2.50,9.56,-2.79,10.27
3.655,-0.84,7.08,-0.74,7.17
3.665,0.24,4.57,1.31,4.76
3.675,0.52,2.39,3.65,4.40
3.685,0.54,0.61,5.41,5.47
3.695,0.86,-0.62,5.36,5.46
3.705,1.97,-1.50,4.78,5.38
3.714,2.75,-2.63,4.70,6.05
3.724,2.66,-3.71,3.85,5.97
3.735,2.31,-3.77,2.07,4.89
3.745,1.27,-2.40,0.28,2.73
3.754,-0.26,-1.21,-0.45,1.32
3.764,-1.72,-0.53,-0.53,1.87
3.774,-2.93,-0.35,-0.03,2.95
3.784,-3.80,-0.48,0.91,3.94
3.794,-4.34,-0.78,1.97,4.83
3.804,-4.59,-1.12,2.69,5.43
3.814,-4.57,-1.45,2.79,5.55
3.824,-4.32,-1.65,2.60,5.30
3.834,-4.07,-1.66,2.24,4.93
3.844,-3.73,-1.80,1.75,4.49
3.854,-3.02,-2.04,1.18,3.83
3.864,-2.05,-2.19,0.50,3.04
3.874,-0.88,-2.06,-0.22,2.25
3.884,0.66,-1.87,-0.78,2.13
3.894,2.46,-1.97,-1.79,3.62
3.904,4.16,-2.55,-3.31,5.89
3.914,5.42,-3.11,-3.77,7.30
3.924,5.64,-3.26,-3.34,7.32
3.934,5.36,-3.23,-4.05,7.45
3.944,4.80,-1.23,-5.47,7.38
3.954,3.69,1.97,-5.50,6.91
3.964,2.83,1.77,-3.58,4.89
3.974,2.59,1.10,-2.29,3.63
3.984,2.19,2.28,-1.62,3.55
3.994,1.37,4.18,-0.43,4.42
4.004,0.05,5.92,1.08,6.02
4.014,-1.75,7.06,2.60,7.72
4.024,-3.25,7.21,4.11,8.91
4.034,-4.14,6.72,4.45,9.06
4.044,-4.52,5.27,2.95,7.55
4.054,-4.60,3.32,1.36,5.83
4.064,-4.46,2.50,2.05,5.51
4.074,-3.25,3.06,3.12,5.45
4.084,-1.84,3.40,2.81,4.78
4.094,-1.23,3.07,1.13,3.50
4.104,-1.59,2.85,0.27,3.27
4.114,-2.36,2.59,0.64,3.56
4.124,-3.10,2.26,1.50,4.12
4.134,-2.89,2.40,1.45,4.03
4.144,-2.33,1.91,-0.24,3.03
4.154,-2.25,0.31,-1.23,2.58
4.164,-1.85,-0.83,-0.22,2.04
4.174,-1.00,-1.46,0.32,1.80
4.184,-0.61,-1.36,0.51,1.58
4.194,-0.85,-0.96,0.50,1.38
4.204,-1.28,-1.01,-0.18,1.64
4.214,-1.40,-1.64,-0.50,2.21
4.224,-1.23,-2.28,-0.09,2.59
4.234,-0.74,-2.37,0.09,2.49
4.244,-0.04,-2.23,-0.09,2.24
4.254,0.69,-2.01,-0.35,2.15
4.264,1.18,-1.66,-0.62,2.13
4.274,1.39,-1.29,-0.54,1.98
4.284,1.40,-0.94,-0.48,1.75
4.294,1.19,-0.77,-0.39,1.47
4.303,0.84,-0.73,-0.65,1.29
4.314,0.67,-0.71,-1.16,1.51
4.324,0.49,-0.83,-1.59,1.86
4.334,0.22,-0.97,-1.95,2.19
4.343,-0.11,-1.06,-2.33,2.56
4.353,-0.34,-1.01,-2.88,3.07
4.364,-0.61,-0.88,-3.37,3.54
4.374,-0.85,-0.96,-3.73,3.95
4.384,-1.10,-1.53,-3.76,4.20
4.394,-1.32,-2.78,-3.46,4.63
4.403,-1.09,-4.44,-2.74,5.33
4.414,-0.40,-5.85,-1.92,6.17
4.423,0.25,-6.63,-1.68,6.84
4.433,0.28,-6.14,-2.25,6.54
4.443,-0.82,-3.87,-3.58,5.33
4.453,-2.50,-0.93,-5.22,5.86
4.463,-3.63,1.48,-6.29,7.41
4.473,-3.55,2.48,-5.35,6.88
4.483,-2.02,1.57,-4.42,5.10
4.493,0.23,-0.43,-3.82,3.85
4.503,2.53,-2.19,-2.89,4.42
4.513,4.17,-2.77,-2.39,5.54
4.523,4.67,-2.65,-2.28,5.83
4.533,4.23,-2.01,-1.33,4.87
4.543,3.16,-0.91,0.30,3.30
4.553,1.68,-0.01,1.12,2.02
4.563,0.24,2.02,0.96,2.25
4.573,-0.86,6.14,-0.03,6.20
4.583,-1.22,9.36,-1.74,9.59
4.593,-1.00,11.08,-3.08,11.54
4.605,-0.24,11.90,-3.05,12.29
4.613,1.20,11.05,-1.63,11.23
4.623,2.25,8.11,0.85,8.46
4.633,2.15,5.12,3.06,6.34
4.643,1.54,2.56,4.80,5.65
4.653,0.97,0.65,5.61,5.73
4.663,0.43,-0.97,5.66,5.76
4.673,0.31,-2.24,5.10,5.57
4.683,1.25,-2.87,4.29,5.31
4.693,1.73,-3.85,3.80,5.68
4.703,1.41,-4.34,2.81,5.36
4.713,0.60,-3.46,1.30,3.74
4.723,-0.47,-1.96,0.41,2.06
4.733,-1.60,-0.91,0.11,1.84
4.743,-2.57,-0.43,0.00,2.61
4.753,-3.23,-0.44,0.39,3.28
4.763,-3.51,-0.77,1.24,3.81
4.773,-3.52,-1.20,2.21,4.33
4.783,-3.36,-1.52,2.85,4.66
4.793,-3.24,-1.47,3.00,4.66
4.803,-3.14,-1.31,2.79,4.40
4.813,-2.96,-1.40,2.40,4.06
4.823,-2.60,-1.59,1.92,3.60
4.833,-1.90,-1.94,1.50,3.10
4.843,-0.85,-2.21,0.73,2.48
4.853,0.43,-2.12,0.02,2.17
4.863,2.01,-2.19,-0.73,3.06
4.872,3.74,-2.59,-2.14,5.03
4.883,5.33,-3.18,-3.48,7.11
4.893,6.23,-3.43,-3.60,7.97
4.903,6.41,-3.57,-3.64,8.19
4.913,6.00,-3.26,-4.13,7.98
4.923,4.48,-0.09,-4.44,6.30
4.933,2.49,1.96,-3.39,4.64
4.943,1.30,0.97,-2.05,2.62
4.953,0.41,0.46,-2.16,2.24
4.963,-0.23,2.01,-2.26,3.03
4.973,-0.40,4.04,-0.83,4.14
4.982,-1.12,5.63,1.55,5.94
4.993,-1.88,6.83,3.93,8.10
5.002,-2.06,8.06,4.91,9.66
5.013,-2.06,9.07,4.62,10.39
5.022,-1.97,8.05,2.72,8.73
5.033,-1.92,5.71,1.18,6.14
5.042,-1.72,4.16,1.89,4.89
5.052,-1.06,3.68,2.37,4.51
5.062,-0.76,3.26,1.66,3.74
5.072,-1.47,2.62,0.47,3.04
5.083,-2.39,2.21,-0.18,3.26
5.092,-3.23,2.00,-0.04,3.80
5.102,-4.07,2.30,0.54,4.71
5.113,-4.67,2.63,1.34,5.52
5.122,-4.75,2.46,0.37,5.36
5.132,-4.00,1.18,-0.72,4.23
5.142,-2.49,-0.55,-0.01,2.55
5.152,-1.31,-1.20,0.61,1.88
5.162,-0.83,-1.00,1.21,1.78
5.172,-0.30,-1.11,0.40,1.21
5.182,-0.46,-1.89,-1.13,2.25
5.192,-0.46,-1.97,-0.90,2.22
5.202,-0.31,-2.19,0.12,2.21
5.212,0.14,-2.67,0.23,2.68
5.222,0.83,-2.94,-0.30,3.07
5.232,1.44,-3.02,-0.49,3.38
5.242,1.78,-2.99,-0.20,3.49
5.252,1.80,-2.81,0.14,3.34
5.262,1.61,-2.48,0.22,2.97
5.272,1.40,-2.05,-0.18,2.49
5.282,1.27,-1.67,-0.97,2.31
5.292,1.21,-1.26,-1.74,2.47
5.302,1.13,-0.92,-2.37,2.78
5.312,0.94,-0.82,-2.96,3.21
5.322,0.54,-0.94,-3.53,3.70
5.332,-0.03,-1.14,-4.01,4.17
5.342,-0.60,-1.30,-4.07,4.31
5.352,-1.06,-1.51,-3.54,3.99
5.362,-1.17,-2.52,-2.50,3.73
5.372,-0.73,-4.38,-1.27,4.62
5.382,-0.04,-6.12,-0.99,6.20
5.392,-0.18,-6.82,-1.03,6.90
5.402,-0.76,-5.72,-2.36,6.23
5.412,-1.78,-2.70,-4.03,5.17
5.422,-2.92,0.45,-5.61,6.34
5.432,-3.42,3.01,-6.99,8.35
5.442,-3.09,3.41,-5.89,7.47
5.452,-1.98,1.45,-4.71,5.31
5.462,-0.13,-0.74,-4.38,4.45
5.472,2.12,-2.12,-3.98,4.98
5.482,3.90,-2.40,-3.32,5.66
5.492,4.68,-2.18,-2.65,5.80
5.502,4.44,-1.64,-1.83,5.08
5.512,3.44,-0.80,0.01,3.54
5.522,2.05,0.18,1.37,2.47
5.532,0.57,2.05,1.75,2.75
5.542,-0.68,5.59,0.87,5.70
5.552,-1.18,8.77,-0.86,8.89
5.562,-1.38,10.50,-2.23,10.82
5.572,-0.95,11.40,-2.44,11.70
5.582,0.67,10.99,-1.62,11.13
5.592,2.06,8.43,0.47,8.69
5.602,2.28,5.30,2.87,6.44
5.612,2.27,2.63,4.02,5.31
5.622,1.80,0.48,5.03,5.36
5.632,1.09,-1.30,6.10,6.33
5.642,1.20,-2.22,6.09,6.60
5.651,1.90,-3.05,4.92,6.09
5.662,1.90,-3.77,3.90,5.75
5.672,1.26,-3.74,2.95,4.93
5.682,0.62,-2.90,1.74,3.44
5.692,-0.43,-1.81,1.08,2.15
5.701,-1.54,-0.69,0.35,1.72
5.712,-2.37,-0.04,0.05,2.37
5.721,-2.90,0.04,0.58,2.96
5.731,-3.10,-0.32,1.60,3.50
5.741,-3.05,-0.88,2.67,4.14
5.752,-2.85,-1.42,3.12,4.46
5.761,-2.72,-1.74,2.95,4.37
5.771,-2.75,-1.74,2.43,4.06
5.781,-2.81,-1.81,1.92,3.85
5.791,-2.55,-1.92,1.51,3.53
5.801,-1.91,-2.05,0.94,2.95
5.811,-1.09,-2.06,0.16,2.34
5.821,-0.03,-1.79,-0.35,1.82
5.831,1.50,-1.54,-0.95,2.35
5.841,3.29,-2.11,-2.27,4.52
5.851,4.84,-2.96,-3.25,6.54
5.861,5.75,-3.52,-2.76,7.29
5.871,5.98,-3.95,-2.41,7.56
5.881,6.01,-3.89,-3.57,8.01
5.891,5.26,-1.34,-4.57,7.09
5.901,3.09,1.98,-3.58,5.13
5.911,1.61,1.80,-1.97,3.12
5.921,1.06,2.14,-2.49,3.45
5.931,0.84,4.06,-2.37,4.78
5.941,0.50,5.58,0.62,5.64
5.951,-0.17,6.88,2.95,7.48
5.961,-1.15,7.51,3.11,8.21
5.971,-2.43,7.20,2.70,8.07
5.981,-3.56,4.96,2.21,6.49
5.991,-3.98,2.16,1.66,4.83
6.001,-3.76,1.56,1.77,4.44
6.011,-2.98,2.30,2.93,4.77
6.021,-1.56,3.53,3.17,4.99
6.031,-0.74,4.23,1.84,4.67
6.041,-0.97,4.32,-0.17,4.43
6.051,-1.85,4.27,-0.40,4.67
6.061,-2.89,4.32,0.62,5.23
6.071,-3.76,4.32,1.75,5.99
6.081,-4.12,3.84,1.58,5.85
6.091,-4.17,2.60,0.52,4.94
6.101,-3.90,0.37,0.17,3.93
6.111,-2.85,-1.10,-0.16,3.06
6.121,-1.94,-0.87,0.47,2.18
6.131,-1.59,-0.59,0.82,1.88
6.141,-1.54,-0.65,0.85,1.88
6.151,-1.48,-1.38,0.20,2.03
6.161,-1.28,-2.05,-0.48,2.47
6.171,-0.78,-2.22,-0.90,2.52
6.181,-0.10,-2.13,-0.64,2.22
6.191,0.60,-1.95,-0.31,2.06
6.201,1.18,-1.83,-0.09,2.18
6.211,1.51,-1.77,0.05,2.32
6.221,1.59,-1.83,0.09,2.42
6.231,1.57,-1.87,0.03,2.44
6.241,1.41,-1.79,0.02,2.28
6.251,1.14,-1.69,-0.18,2.05
6.261,0.87,-1.57,-0.68,1.92
6.270,0.63,-1.45,-1.32,2.06
6.281,0.42,-1.37,-1.96,2.43
6.291,0.09,-1.30,-2.63,2.93
6.301,-0.27,-1.06,-3.33,3.50
6.311,-0.55,-0.87,-3.80,3.94
6.320,-0.75,-0.85,-3.85,4.01
6.330,-1.07,-1.19,-3.35,3.71
6.341,-1.29,-2.25,-2.68,3.73
6.350,-1.06,-4.10,-2.11,4.73
6.360,-0.40,-5.79,-1.59,6.02
6.370,0.23,-6.68,-1.72,6.91
6.380,0.57,-6.22,-2.51,6.74
6.391,0.06,-4.25,-3.65,5.60
6.401,-1.20,-2.08,-4.94,5.49
6.410,-2.14,-0.33,-5.55,5.96
6.420,-2.35,0.36,-4.65,5.22
6.430,-1.57,0.01,-3.99,4.29
6.441,0.20,-0.88,-3.85,3.96
6.450,2.06,-1.81,-3.53,4.47
6.460,3.15,-2.11,-2.64,4.62
6.470,3.41,-1.76,-1.86,4.27
6.480,2.89,-1.10,-0.71,3.17
6.490,1.81,-0.10,0.68,1.93
6.500,0.75,1.92,1.31,2.44
6.510,-0.56,5.60,0.89,5.70
6.520,-1.42,9.17,0.02,9.28
6.530,-1.37,11.51,-1.12,11.64
6.541,-0.80,12.45,-1.44,12.55
6.551,0.78,12.24,-1.07,12.31
6.560,2.58,10.29,0.39,10.61
6.570,3.24,7.22,1.82,8.13
6.580,3.04,4.31,2.94,6.04
6.590,2.91,2.13,3.51,5.04
6.600,2.34,0.33,4.80,5.35
6.611,1.90,-1.44,5.64,6.12
6.620,2.26,-2.21,5.28,6.15
6.630,2.81,-2.56,4.28,5.72
6.640,2.53,-2.85,3.50,5.18
6.650,1.64,-2.44,2.52,3.87
6.660,0.57,-1.75,1.70,2.51
6.670,-0.55,-1.19,1.33,1.87
6.680,-1.60,-1.07,0.95,2.14
6.690,-2.57,-1.12,0.72,2.89
6.700,-3.54,-1.29,1.06,3.92
6.710,-4.28,-1.74,1.50,4.85
6.720,-4.62,-2.28,1.74,5.44
6.730,-4.60,-2.67,1.67,5.57
6.740,-4.42,-2.71,1.61,5.43
6.750,-4.13,-2.70,1.34,5.12
6.760,-3.64,-2.78,0.78,4.64
6.770,-2.93,-2.74,0.34,4.02
6.780,-1.87,-2.48,-0.20,3.11
6.790,-0.62,-2.18,-0.65,2.36
6.800,0.80,-1.98,-0.68,2.24
6.810,2.52,-1.80,-0.91,3.22
6.820,4.42,-1.63,-1.31,4.89
6.830,5.75,-2.07,-1.36,6.26
6.840,6.18,-2.86,-0.97,6.87
6.850,6.13,-3.42,-1.59,7.20
6.860,5.80,-2.97,-3.49,7.39
6.870,4.54,-0.07,-5.03,6.78
6.880,2.93,1.70,-3.60,4.94
6.890,1.69,1.59,-2.13,3.15
6.899,1.12,2.03,-2.65,3.52
6.910,1.03,2.93,-1.83,3.61
6.920,0.82,4.02,0.77,4.17
6.930,-0.05,4.81,2.18,5.28
6.940,-1.40,5.56,2.64,6.31
6.949,-2.30,6.23,2.99,7.29
6.960,-2.65,6.65,3.06,7.78
6.970,-3.07,5.70,2.81,7.06
6.980,-3.33,3.44,1.62,5.05
6.990,-3.52,1.34,1.14,3.94
6.999,-3.37,1.04,1.58,3.87
7.009,-2.49,1.56,1.74,3.42
7.020,-1.67,1.70,1.37,2.74
7.029,-1.40,1.95,0.90,2.56
7.040,-1.48,2.33,0.36,2.78
7.049,-1.74,2.90,0.65,3.45
7.059,-2.01,3.55,1.37,4.30
7.069,-2.37,3.58,1.63,4.59
7.079,-2.52,2.39,0.50,3.51
7.089,-2.18,0.49,-0.57,2.31
7.099,-1.23,-0.25,0.04,1.25
7.109,-0.76,-0.65,0.92,1.36
7.119,-0.82,-0.66,1.08,1.51
7.129,-1.24,-0.36,0.81,1.52
7.139,-1.73,-0.62,0.63,1.94
7.149,-1.88,-1.10,0.44,2.23
7.159,-1.30,-1.32,0.10,1.85
7.169,-0.92,-1.57,-0.58,1.91
7.179,-0.15,-0.89,-0.64,1.10
7.189,0.56,-0.61,-0.19,0.85
7.199,0.99,-0.85,-0.19,1.32
7.209,1.19,-1.28,-0.22,1.76
7.219,1.26,-1.55,-0.31,2.02
7.229,1.24,-1.60,-0.56,2.10
7.239,1.21,-1.46,-0.85,2.08
7.249,1.22,-1.29,-1.13,2.10
7.259,1.27,-1.22,-1.64,2.40
7.269,1.30,-1.16,-2.39,2.96
7.279,1.14,-1.26,-3.03,3.47
7.289,0.74,-1.51,-3.47,3.86
7.299,0.19,-1.79,-3.62,4.04
7.309,-0.36,-2.02,-3.31,3.90
7.319,-0.81,-2.61,-2.58,3.76
7.329,-0.79,-3.68,-1.51,4.06
7.339,-0.17,-5.01,-0.54,5.04
7.349,0.30,-6.04,-0.21,6.05
7.359,0.13,-5.97,-0.77,6.02
7.369,-0.83,-4.61,-2.25,5.20
7.379,-2.10,-2.48,-4.29,5.38
7.389,-3.18,-0.01,-6.31,7.07
7.399,-3.71,2.27,-6.64,7.94
7.409,-3.00,2.69,-5.36,6.71
7.419,-1.65,1.16,-4.23,4.69
7.429,0.12,-0.96,-3.68,3.81
7.439,2.09,-2.88,-3.16,4.76
7.449,3.57,-3.61,-2.47,5.64
7.459,4.10,-3.40,-1.95,5.68
7.469,3.70,-2.61,-0.72,4.59
7.479,2.65,-1.41,0.96,3.16
7.489,1.43,0.05,1.92,2.39
7.499,0.17,2.91,1.77,3.41
7.509,-1.12,7.15,0.93,7.30
7.519,-1.41,10.33,-1.24,10.50
7.529,-1.52,12.26,-3.02,12.72
7.540,-1.04,12.80,-2.74,13.13
7.549,0.45,11.14,-1.42,11.24
7.558,2.00,7.92,-0.14,8.17
7.569,2.65,4.90,1.60,5.80
7.579,2.70,2.88,3.35,5.18
7.588,2.21,1.07,5.28,5.83
7.599,1.67,-0.75,6.16,6.43
7.609,1.98,-1.94,5.51,6.17
7.619,2.29,-2.99,5.08,6.32
7.628,2.00,-3.83,4.37,6.14
7.639,1.22,-3.03,2.82,4.32
7.649,0.38,-1.40,1.09,1.82
7.659,-0.63,-0.65,0.50,1.03
7.668,-1.42,-0.40,-0.00,1.47
7.678,-2.07,-0.43,-0.54,2.18
7.688,-2.68,-0.74,-0.41,2.81
7.698,-3.16,-1.25,0.48,3.43
7.708,-3.41,-1.64,1.70,4.15
7.718,-3.51,-1.94,2.55,4.76
7.728,-3.53,-1.99,2.71,4.87
7.738,-3.55,-1.86,2.45,4.70
7.748,-3.56,-2.05,2.19,4.66
7.758,-3.30,-2.37,1.89,4.48
7.768,-2.77,-2.60,1.41,4.05
7.778,-2.06,-2.72,0.82,3.51
7.788,-1.05,-2.51,0.03,2.72
7.798,0.24,-2.20,-0.64,2.31
7.808,2.03,-1.94,-1.32,3.10
7.818,4.04,-1.83,-2.28,4.99
7.828,5.65,-1.99,-2.80,6.62
7.838,6.42,-2.37,-2.73,7.37
7.848,6.56,-3.13,-3.19,7.94
7.858,6.40,-2.95,-4.48,8.36
7.868,4.90,0.37,-5.54,7.41
7.878,2.99,1.88,-3.84,5.22
7.888,1.91,1.10,-2.61,3.42
7.898,1.55,1.33,-3.78,4.29
7.908,1.58,2.87,-2.85,4.34
7.918,1.69,4.37,0.49,4.71
7.928,1.35,5.21,3.24,6.28
7.938,0.02,5.30,3.85,6.55
7.948,-1.99,4.73,3.49,6.21
7.958,-3.46,3.70,4.01,6.46
7.968,-3.96,2.71,2.96,5.64
7.978,-3.89,2.55,1.91,5.03
7.988,-3.76,2.92,2.16,5.23
7.998,-3.31,3.25,2.05,5.07
8.008,-2.54,3.82,1.15,4.73
8.018,-1.98,4.28,0.30,4.73
8.028,-1.97,4.64,0.20,5.05
8.038,-2.52,4.41,1.16,5.21
8.048,-3.06,3.93,2.50,5.57
8.058,-3.17,3.08,1.73,4.75
8.068,-3.12,1.31,0.24,3.39
8.078,-2.83,-0.84,-0.82,3.07
8.088,-1.91,-1.76,-1.31,2.91
8.098,-0.76,-1.24,-0.49,1.53
8.108,-0.30,-0.68,0.17,0.76
8.118,-0.62,-0.44,0.41,0.86
8.127,-0.80,-0.33,0.53,1.02
8.138,-0.91,-0.84,0.53,1.35
8.148,-0.57,-1.42,0.40,1.58
8.158,0.10,-1.74,0.14,1.75
8.168,0.71,-1.86,-0.02,1.99
8.178,1.13,-1.73,-0.14,2.07
8.188,1.31,-1.51,-0.36,2.03
8.197,1.25,-1.43,-0.36,1.94
8.208,1.11,-1.27,-0.33,1.72
8.218,0.71,-1.16,-0.19,1.37
8.227,0.48,-0.97,-0.61,1.24
8.238,0.50,-0.99,-0.97,1.48
8.248,0.49,-1.00,-1.30,1.71
8.258,0.30,-0.89,-1.88,2.10
8.267,-0.07,-0.82,-2.53,2.66
8.277,-0.53,-0.84,-3.10,3.25
8.288,-0.92,-1.08,-3.61,3.88
8.297,-1.19,-1.78,-3.90,4.45
8.308,-1.42,-2.92,-3.65,4.89
8.317,-1.39,-4.51,-3.00,5.59
8.327,-0.95,-6.25,-2.24,6.71
8.337,-0.39,-7.14,-1.64,7.34
8.347,-0.06,-6.50,-1.74,6.73
8.357,-0.17,-4.68,-2.48,5.30
8.367,-1.02,-2.16,-3.55,4.28
8.377,-2.23,0.42,-4.81,5.31
8.387,-2.85,2.40,-5.19,6.39
8.397,-2.28,2.88,-4.32,5.67
8.407,-0.68,1.83,-3.64,4.13
8.417,1.23,-0.19,-3.49,3.71
8.427,2.91,-1.96,-3.39,4.88
8.437,4.00,-2.60,-3.26,5.78
8.447,4.20,-2.66,-2.57,5.60
8.457,3.51,-2.42,-1.00,4.38
8.467,2.42,-1.67,0.92,3.08
8.477,1.22,-0.52,2.00,2.40
8.487,0.03,1.61,1.86,2.45
8.497,-1.08,5.17,0.22,5.28
8.507,-1.44,8.47,-1.78,8.77
8.517,-1.28,10.38,-2.98,10.88
8.527,-0.48,11.46,-2.79,11.81
8.537,1.22,10.93,-1.84,11.15
8.547,2.73,8.85,-0.33,9.27
8.557,2.88,6.38,1.66,7.19
8.567,2.45,4.05,3.49,5.88
8.577,1.97,1.88,4.68,5.41
8.587,1.46,0.12,5.69,5.88
8.597,1.14,-1.35,5.87,6.13
8.607,1.69,-2.13,4.96,5.65
8.617,2.14,-2.45,4.35,5.43
8.627,1.87,-2.60,3.64,4.85
8.637,1.27,-2.14,2.31,3.40
8.647,0.62,-1.22,1.15,1.79
8.657,-0.11,-0.56,0.68,0.88
8.667,-0.89,-0.37,0.47,1.07
8.677,-1.63,-0.49,0.38,1.74
8.687,-2.31,-0.82,0.85,2.59
8.697,-2.80,-1.23,1.79,3.55
8.707,-3.09,-1.71,2.60,4.38
8.717,-3.16,-2.10,2.92,4.79
8.727,-3.18,-2.08,2.79,4.72
8.737,-3.21,-1.90,2.37,4.42
8.747,-3.12,-1.97,1.92,4.16
8.757,-2.74,-2.13,1.39,3.74
8.767,-2.05,-2.17,0.76,3.08
8.777,-1.09,-1.96,0.11,2.24
8.787,0.13,-1.57,-0.45,1.63
8.797,1.73,-1.28,-0.76,2.28
8.807,3.57,-1.18,-1.46,4.03
8.816,5.12,-1.66,-2.49,5.93
8.827,5.80,-2.55,-2.70,6.89
8.837,5.65,-3.51,-2.60,7.14
8.847,5.30,-3.98,-3.55,7.52
8.857,4.70,-2.19,-5.11,7.28
8.866,3.18,0.46,-4.43,5.47
8.876,1.67,0.53,-2.31,2.90
8.887,1.09,0.91,-2.40,2.79
8.897,1.14,2.47,-2.02,3.38
8.907,1.33,3.91,0.18,4.14
8.917,0.99,4.95,2.24,5.52
8.926,-0.05,5.55,3.04,6.33
8.937,-1.35,5.70,3.80,6.99
8.946,-2.25,5.27,3.61,6.77
8.956,-2.80,4.24,2.93,5.87
8.966,-2.82,3.49,2.24,5.01
8.976,-2.80,3.03,2.24,4.70
8.987,-2.66,3.00,2.75,4.86
8.996,-1.93,3.41,2.21,4.50
9.006,-1.46,3.86,1.12,4.28
9.016,-1.60,4.15,0.33,4.46
9.026,-2.29,3.89,0.26,4.52
9.036,-3.34,3.30,1.07,4.82
9.046,-3.72,3.06,1.32,5.00
9.056,-3.60,2.50,0.29,4.39
9.066,-4.12,0.66,-0.83,4.25
9.076,-3.27,-0.32,-1.71,3.70
9.086,-1.93,-0.33,-0.54,2.03
9.096,-1.11,-0.02,0.81,1.37
9.106,-0.96,0.07,0.83,1.27
9.116,-1.16,-0.38,0.27,1.25
9.126,-1.27,-0.91,-0.03,1.56
9.136,-1.17,-1.26,-0.18,1.72
9.146,-0.68,-1.41,-0.41,1.62
9.156,0.09,-1.60,-0.48,1.67
9.166,0.80,-1.82,-0.39,2.02
9.176,1.36,-2.04,-0.37,2.48
9.186,1.69,-2.23,-0.21,2.81
9.196,1.82,-2.22,-0.13,2.87
9.206,1.73,-2.06,-0.25,2.70
9.216,1.61,-1.81,-0.49,2.47
9.226,1.60,-1.69,-0.65,2.42
9.236,1.66,-1.55,-1.23,2.58
9.246,1.67,-1.35,-1.93,2.88
9.256,1.58,-1.23,-2.53,3.23
9.266,1.26,-1.16,-3.04,3.49
9.276,0.63,-1.07,-3.35,3.57
9.286,0.02,-1.05,-3.44,3.60
9.296,-0.47,-1.28,-3.32,3.59
9.306,-0.82,-1.94,-2.98,3.65
9.316,-1.06,-3.37,-2.28,4.20
9.326,-0.98,-5.28,-1.50,5.57
9.336,-0.59,-6.75,-1.11,6.87
9.346,-0.36,-6.88,-1.25,7.00
9.356,-0.52,-5.24,-1.97,5.63
9.366,-1.39,-2.42,-2.82,3.97
9.376,-2.88,0.28,-3.96,4.90
9.386,-3.97,2.45,-5.12,6.93
9.396,-3.69,3.62,-5.11,7.27
9.406,-1.99,3.01,-4.10,5.46
9.416,0.32,0.97,-3.66,3.80
9.426,2.50,-1.18,-3.45,4.42
9.436,4.20,-2.25,-3.25,5.77
9.446,4.89,-2.67,-3.07,6.36
9.456,4.69,-2.82,-2.40,5.98
9.466,3.84,-2.48,-0.92,4.66
9.476,2.61,-1.67,0.77,3.19
9.486,1.16,-0.66,1.95,2.36
9.496,-0.27,0.68,2.20,2.32
9.506,-1.33,3.69,0.48,3.95
9.516,-2.03,7.52,-1.67,7.96
9.526,-2.00,9.89,-3.37,10.64
9.536,-1.44,11.31,-3.57,11.95
9.546,0.08,11.57,-2.56,11.85
9.556,1.87,10.04,-1.00,10.26
9.565,2.22,7.54,1.33,7.97
9.576,1.79,4.82,3.42,6.17
9.586,1.40,2.21,5.01,5.65
9.596,0.92,-0.02,6.09,6.16
9.605,0.67,-1.72,6.22,6.49
9.615,1.23,-2.51,5.37,6.05
9.626,2.09,-3.01,4.44,5.75
9.635,2.10,-3.27,3.72,5.38
9.645,1.62,-2.89,2.49,4.14
9.655,1.17,-1.89,1.10,2.48
9.665,0.34,-1.34,0.46,1.46
9.675,-0.64,-1.03,-0.02,1.21
9.685,-1.49,-0.88,-0.32,1.76
9.695,-2.23,-1.08,0.15,2.49
9.705,-2.84,-1.43,1.29,3.43
9.715,-3.26,-1.70,2.48,4.43
9.725,-3.50,-1.78,2.95,4.91
9.735,-3.67,-1.72,2.74,4.89
9.745,-3.81,-1.92,2.33,4.86
9.755,-3.69,-2.21,1.92,4.70
9.765,-3.13,-2.32,1.40,4.14
9.775,-2.30,-2.47,0.74,3.46
9.785,-1.18,-2.27,-0.01,2.56
9.795,0.22,-1.77,-0.47,1.85
9.805,1.86,-1.34,-1.13,2.55
9.815,3.70,-1.52,-2.49,4.71
9.825,5.17,-2.11,-3.22,6.44
9.835,5.74,-2.80,-2.69,6.93
9.845,5.96,-3.52,-2.91,7.51
9.855,6.21,-3.50,-4.37,8.36
9.865,5.38,-0.67,-5.20,7.51
9.875,3.43,1.51,-3.26,4.96
9.885,2.42,1.01,-1.91,3.25
9.895,2.18,0.97,-2.44,3.41
9.905,1.88,2.03,-1.57,3.19
9.915,1.48,3.68,1.13,4.13
9.925,0.68,4.87,2.93,5.73
9.935,-0.98,5.48,3.46,6.55
9.945,-2.28,5.46,3.20,6.73
9.955,-2.88,5.33,3.07,6.79
9.965,-3.17,4.71,2.52,6.21
9.975,-3.15,3.96,1.43,5.26
9.985,-3.10,3.52,1.49,4.92
9.995,-2.87,3.29,2.09,4.84
10.005,-2.37,3.41,2.01,4.61
10.015,-1.95,3.97,0.75,4.49
10.025,-2.24,4.59,0.37,5.12
10.035,-3.05,4.69,1.64,5.83
10.045,-3.50,4.67,2.44,6.32
10.055,-3.56,3.71,1.62,5.39
10.065,-3.47,1.80,0.28,3.92
10.075,-3.62,-0.15,-0.21,3.62
10.085,-2.42,-1.15,-0.91,2.83
10.095,-1.20,-2.36,-1.31,2.95
10.105,-0.31,-1.97,-0.58,2.07
10.115,-0.32,-0.70,0.51,0.92
10.125,-0.91,-0.65,0.63,1.28
10.135,-1.32,-1.27,0.34,1.86
10.145,-1.41,-1.61,0.02,2.14
10.155,-0.96,-1.67,-0.36,1.96
10.165,-0.20,-1.72,-0.57,1.83
10.175,0.55,-1.78,-0.59,1.95
10.185,1.14,-1.80,-0.60,2.21
10.195,1.47,-1.93,-0.43,2.47
10.205,1.60,-2.02,-0.28,2.59
10.215,1.65,-1.91,-0.14,2.53
10.225,1.60,-1.67,-0.13,2.31
10.235,1.61,-1.21,-0.58,2.10
10.244,1.60,-0.77,-0.85,1.97
10.254,1.50,-0.53,-1.07,1.91
10.264,1.20,-0.36,-1.65,2.07
10.274,0.69,-0.28,-2.37,2.48
10.284,0.10,-0.32,-2.84,2.86
10.294,-0.32,-0.51,-3.09,3.14
10.305,-0.60,-1.05,-3.09,3.32
10.314,-0.84,-2.09,-2.69,3.51
10.324,-0.75,-3.63,-1.76,4.11
10.334,-0.55,-5.46,-0.80,5.55
10.344,-0.68,-6.73,-0.52,6.78
10.354,-0.94,-6.43,-0.91,6.56
10.364,-1.30,-4.57,-2.04,5.17
10.374,-2.28,-1.98,-3.36,4.52
10.384,-3.44,0.60,-5.22,6.28
10.394,-3.85,2.72,-6.40,7.95
10.404,-2.88,3.17,-5.56,7.02
10.414,-0.95,1.63,-4.74,5.10
10.424,1.07,-0.69,-4.50,4.68
10.434,2.93,-2.45,-4.13,5.63
10.444,4.12,-3.06,-3.72,6.34
10.454,4.41,-3.08,-2.99,6.15
10.464,4.09,-2.73,-1.84,5.25
10.474,3.17,-1.98,-0.15,3.74
10.484,1.86,-0.93,1.52,2.58
10.494,0.34,0.43,2.54,2.60
10.504,-0.88,3.28,1.55,3.74
10.514,-1.65,7.25,-0.34,7.44
10.524,-1.33,10.19,-2.64,10.61
10.534,-0.79,12.04,-3.11,12.46
10.545,0.36,12.51,-2.26,12.72
10.554,1.83,10.82,-0.49,10.98
10.564,2.27,7.58,1.37,8.03
10.574,1.91,4.43,2.84,5.60
10.584,1.46,1.91,4.19,4.83
10.594,0.77,-0.30,5.51,5.57
10.604,0.62,-1.89,6.14,6.45
10.614,1.47,-2.79,5.19,6.08
10.624,2.05,-3.64,4.13,5.88
10.634,1.90,-3.81,3.33,5.40
10.644,1.45,-2.75,1.57,3.48
10.654,0.52,-1.55,0.59,1.74
10.664,-0.64,-0.73,0.31,1.02
10.674,-1.67,-0.34,-0.20,1.72
10.684,-2.57,-0.44,-0.18,2.61
10.694,-3.16,-0.93,0.56,3.35
10.704,-3.42,-1.48,1.62,4.06
10.714,-3.48,-1.88,2.55,4.71
10.724,-3.45,-2.14,2.96,5.03
10.734,-3.40,-2.05,2.77,4.84
10.744,-3.35,-2.09,2.40,4.63
10.754,-3.17,-2.37,2.10,4.48
10.763,-2.77,-2.63,1.71,4.18
10.774,-2.14,-2.76,1.21,3.70
10.784,-1.29,-2.67,0.47,3.00
10.794,-0.18,-2.32,-0.19,2.33
10.804,1.34,-1.80,-0.91,2.42
10.814,3.06,-1.70,-2.35,4.21
10.824,4.71,-2.13,-3.58,6.29
10.833,5.72,-2.41,-3.62,7.19
10.844,6.15,-2.91,-3.70,7.75
10.853,6.57,-3.15,-4.61,8.62
10.863,6.28,-0.63,-5.47,8.35
10.874,4.43,2.37,-3.77,6.28
10.884,3.19,1.97,-1.30,3.97
10.893,2.90,1.58,-2.19,3.97
10.903,2.83,2.37,-2.11,4.25
10.913,2.44,3.60,0.75,4.41
10.923,1.63,4.86,2.83,5.85
10.933,-0.06,5.51,3.39,6.47
10.943,-2.17,5.51,3.17,6.72
10.953,-3.49,5.06,2.96,6.82
10.963,-4.14,3.67,2.26,5.97
10.974,-4.26,2.67,1.42,5.22
10.984,-4.09,2.59,1.57,5.09
10.993,-3.60,2.91,1.76,4.95
11.003,-2.90,3.04,1.41,4.43
11.013,-2.37,3.18,0.50,3.99
11.023,-2.36,3.71,0.04,4.40
11.033,-2.71,4.38,0.86,5.22
11.044,-3.04,5.05,2.59,6.44
11.053,-3.21,4.70,2.95,6.41
11.063,-2.84,2.89,1.20,4.23
11.073,-2.89,0.26,-0.56,2.96
11.083,-2.67,-1.30,-1.21,3.20
11.093,-1.63,-1.31,-1.37,2.50
11.103,-0.55,-1.39,-0.30,1.53
11.113,-0.22,-1.04,1.01,1.46
11.123,-0.58,-0.53,0.97,1.25
11.133,-1.07,-0.73,0.49,1.39
11.143,-1.29,-1.11,0.33,1.74
11.153,-1.15,-1.24,0.11,1.70
11.163,-0.60,-1.34,-0.30,1.50
11.173,0.13,-1.44,-0.53,1.54
11.183,0.73,-1.46,-0.67,1.76
11.193,1.06,-1.55,-0.77,2.03
11.203,1.22,-1.73,-0.72,2.24
11.213,1.21,-1.83,-0.43,2.24
11.223,1.09,-1.87,-0.21,2.18
11.233,0.90,-1.75,-0.38,2.00
11.243,0.77,-1.61,-0.79,1.95
11.253,0.82,-1.27,-1.52,2.14
11.263,0.82,-1.13,-2.05,2.47
11.273,0.57,-1.13,-2.65,2.94
11.283,0.24,-1.30,-3.37,3.62
11.293,-0.08,-1.60,-3.82,4.14
11.303,-0.28,-1.91,-4.04,4.48
11.313,-0.48,-2.33,-3.64,4.35
11.323,-0.60,-3.14,-2.75,4.22
11.333,-0.37,-4.30,-1.81,4.68
11.343,-0.02,-5.37,-1.11,5.48
11.353,0.11,-5.61,-1.23,5.74
11.363,-0.46,-4.39,-2.17,4.91
11.373,-1.91,-2.10,-3.36,4.40
11.383,-3.37,0.34,-4.69,5.78
11.393,-3.65,2.26,-5.71,7.15
11.403,-2.68,2.47,-4.76,6.00
11.413,-1.21,0.88,-3.93,4.20
11.423,0.62,-1.04,-3.93,4.11
11.433,2.45,-2.70,-3.74,5.22
11.442,3.63,-3.51,-3.33,6.05
11.452,4.04,-3.52,-2.62,5.97
11.463,3.61,-3.18,-1.43,5.02
11.473,2.53,-2.22,0.25,3.37
11.483,1.22,-0.88,1.52,2.14
11.493,-0.02,1.31,1.54,2.02
11.502,-1.12,5.19,0.19,5.32
11.513,-1.53,8.79,-1.50,9.05
11.523,-1.29,11.15,-2.62,11.53
11.533,-0.66,12.43,-2.66,12.73
11.542,0.85,11.86,-1.78,12.02
11.553,2.38,9.38,-0.14,9.68
11.562,2.56,6.44,1.93,7.19
11.573,2.36,3.96,3.35,5.70
11.583,1.92,1.70,4.66,5.32
11.593,1.42,-0.28,5.60,5.79
11.603,1.22,-1.72,5.88,6.24
11.612,1.98,-2.34,5.07,5.92
11.622,2.68,-2.99,4.04,5.70
11.632,2.43,-3.25,3.51,5.36
11.642,1.80,-2.71,2.36,4.02
11.652,1.09,-1.88,1.38,2.58
11.662,0.06,-1.41,0.88,1.66
11.672,-1.07,-0.98,0.36,1.49
11.682,-2.13,-0.88,0.21,2.31
11.692,-3.01,-1.11,0.74,3.30
11.702,-3.66,-1.47,1.60,4.26
11.712,-4.05,-1.73,2.46,5.04
11.722,-4.20,-1.76,2.89,5.39
11.732,-4.22,-1.74,2.67,5.29
11.742,-4.19,-1.89,2.20,5.10
11.752,-3.85,-2.06,1.68,4.67
11.762,-3.20,-2.31,1.13,4.11
11.772,-2.25,-2.39,0.34,3.29
11.782,-0.97,-2.20,-0.34,2.43
11.792,0.58,-1.87,-0.67,2.07
11.802,2.44,-1.72,-1.55,3.36
11.812,4.10,-2.09,-2.91,5.45
11.822,5.34,-2.50,-3.46,6.84
11.832,6.12,-2.86,-3.33,7.53
11.842,6.69,-3.33,-3.83,8.40
11.852,6.75,-2.44,-4.64,8.54
11.862,5.03,0.30,-3.94,6.40
11.872,3.18,0.76,-1.94,3.80
11.882,2.11,0.84,-2.07,3.07
11.892,1.51,2.76,-2.11,3.79
11.902,1.41,4.84,-0.01,5.04
11.912,1.32,6.22,2.22,6.74
11.922,0.36,6.83,3.35,7.62
11.932,-1.29,6.76,4.38,8.16
11.942,-2.60,5.65,3.58,7.18
11.952,-3.40,3.45,2.04,5.25
11.962,-3.71,1.76,1.03,4.24
11.972,-3.74,1.44,1.30,4.21
11.982,-3.41,1.83,2.26,4.49
11.992,-2.71,2.38,1.97,4.11
12.002,-2.10,3.20,0.83,3.91
12.012,-2.06,4.25,0.39,4.74
12.022,-2.48,5.09,0.53,5.69
12.032,-3.48,5.79,2.55,7.22
12.042,-4.07,5.59,2.73,7.43
12.052,-4.23,3.58,0.70,5.58
12.062,-4.20,1.00,-0.11,4.32
12.072,-3.29,-0.61,-0.86,3.46
12.082,-1.94,-0.94,-0.86,2.33
12.092,-1.09,-0.88,0.01,1.41
12.102,-0.83,-0.40,0.48,1.04
12.112,-1.06,-0.20,0.32,1.12
12.122,-1.22,-0.54,0.26,1.36
12.131,-1.07,-1.33,0.20,1.72
12.142,-1.07,-1.52,-0.46,1.91
12.152,-0.38,-1.00,-0.42,1.15
12.162,0.50,-0.91,-0.10,1.05
12.172,1.20,-1.15,0.05,1.66
12.182,1.61,-1.55,-0.14,2.24
12.192,1.80,-1.83,-0.19,2.57
12.201,1.86,-1.98,-0.06,2.72
12.212,1.76,-1.96,-0.04,2.63
12.221,1.60,-1.76,-0.25,2.39
12.231,1.44,-1.56,-0.70,2.23
12.241,1.30,-1.34,-1.36,2.31
12.251,1.20,-1.20,-2.12,2.72
12.261,0.97,-1.08,-2.75,3.11
12.271,0.51,-1.08,-3.28,3.49
12.281,-0.01,-1.21,-3.69,3.88
12.291,-0.42,-1.44,-3.86,4.14
12.301,-0.68,-1.86,-3.55,4.07
12.311,-0.74,-2.74,-2.72,3.93
12.321,-0.37,-4.24,-1.79,4.61
12.331,0.31,-5.87,-1.36,6.03
12.341,0.69,-6.73,-1.43,6.91
12.351,0.60,-5.80,-2.27,6.25
12.361,-0.38,-3.44,-3.33,4.80
12.372,-1.89,-0.75,-4.49,4.93
12.381,-2.90,1.56,-5.77,6.65
12.391,-2.85,2.67,-5.75,6.95
12.401,-1.86,1.85,-4.47,5.18
12.411,-0.42,-0.11,-3.72,3.75
12.421,1.53,-2.02,-3.29,4.15
12.431,3.35,-2.97,-3.11,5.45
12.441,4.20,-3.17,-3.00,6.06
12.451,4.16,-3.03,-2.71,5.81
12.461,3.41,-2.27,-1.23,4.28
12.471,2.23,-1.03,0.61,2.53
12.481,0.88,0.31,1.88,2.10
12.491,-0.34,2.55,1.71,3.09
12.501,-1.30,6.29,-0.15,6.43
12.511,-1.73,9.26,-2.22,9.68
12.521,-1.34,10.95,-3.14,11.47
12.532,-0.25,11.60,-3.08,12.00
12.541,1.18,10.89,-1.57,11.06
12.551,2.05,8.44,1.12,8.76
12.561,2.27,5.41,2.61,6.43
12.571,2.20,2.89,3.54,5.07
12.581,1.46,0.85,4.58,4.88
12.591,0.51,-0.56,5.88,5.93
12.601,0.65,-1.47,5.98,6.19
12.611,1.52,-2.11,4.48,5.18
12.621,1.80,-2.55,3.59,4.76
12.631,1.63,-2.27,2.58,3.80
12.641,1.44,-1.50,1.21,2.40
12.651,0.62,-1.10,0.80,1.49
12.661,-0.34,-0.67,0.38,0.84
12.671,-1.21,-0.61,-0.00,1.36
12.681,-2.00,-0.91,0.39,2.23
12.691,-2.61,-1.34,1.42,3.26
12.701,-3.00,-1.78,2.54,4.32
12.711,-3.19,-2.04,3.19,4.95
12.721,-3.38,-2.03,3.06,4.99
12.731,-3.60,-1.96,2.59,4.85
12.741,-3.73,-2.17,2.05,4.78
12.751,-3.37,-2.40,1.52,4.41
12.761,-2.58,-2.54,0.81,3.72
12.771,-1.62,-2.38,0.04,2.88
12.780,-0.37,-1.96,-0.49,2.06
12.790,1.27,-1.39,-1.09,2.17
12.801,3.13,-1.71,-2.44,4.33
12.811,4.81,-2.49,-3.47,6.44
12.821,5.85,-2.97,-3.06,7.23
12.831,6.28,-3.67,-2.81,7.79
12.840,6.43,-4.16,-3.89,8.58
12.851,5.39,-1.71,-4.77,7.40
12.860,2.80,1.73,-3.24,4.62
12.870,1.30,1.68,-1.34,2.51
12.880,1.16,1.43,-1.90,2.64
12.890,1.25,2.48,-2.17,3.52
12.900,1.08,4.01,0.48,4.18
12.910,0.50,5.48,2.96,6.25
12.920,-0.52,6.44,2.83,7.05
12.930,-1.87,6.87,2.03,7.40
12.940,-3.19,6.02,2.18,7.15
12.950,-3.97,3.80,2.64,6.10
12.960,-3.92,2.69,2.04,5.17
12.970,-3.45,2.66,2.33,4.94
12.980,-2.69,2.63,2.69,4.62
12.990,-1.86,3.09,2.17,4.21
13.000,-1.61,3.56,1.73,4.28
13.010,-1.88,3.63,1.50,4.35
13.020,-2.17,3.41,0.60,4.08
13.030,-2.87,3.26,0.66,4.40
13.040,-3.40,4.15,1.88,5.68
13.050,-3.63,4.08,2.03,5.83
13.060,-3.76,2.53,0.73,4.60
13.070,-3.51,0.30,-0.57,3.57
13.080,-2.34,-1.03,-1.62,3.02
13.090,-1.37,-1.50,-1.36,2.44
13.100,-1.17,-1.22,-0.28,1.71
13.110,-1.36,-0.56,0.42,1.53
13.120,-1.66,-0.48,0.51,1.80
13.130,-1.56,-1.16,-0.02,1.94
13.140,-1.21,-1.83,-0.41,2.23
13.150,-0.50,-2.16,-0.65,2.31
13.160,0.34,-2.31,-0.92,2.51
13.170,1.05,-2.29,-0.96,2.69
13.180,1.46,-2.13,-0.88,2.73
13.190,1.64,-2.03,-0.74,2.71
13.200,1.64,-1.88,-0.61,2.57
13.210,1.60,-1.71,-0.58,2.41
13.220,1.50,-1.53,-0.72,2.26
13.230,1.44,-1.40,-1.03,2.26
13.240,1.39,-1.38,-1.38,2.39
13.250,1.29,-1.47,-1.81,2.67
13.260,1.07,-1.48,-2.39,3.00
13.270,0.70,-1.44,-2.97,3.37
13.280,0.33,-1.50,-3.38,3.71
13.290,0.02,-1.60,-3.55,3.89
13.300,-0.30,-1.68,-3.25,3.67
13.310,-0.75,-1.95,-2.39,3.17
13.320,-1.08,-2.86,-1.24,3.30
13.330,-1.03,-4.19,-0.42,4.34
13.340,-0.73,-5.28,-0.51,5.35
13.350,-0.80,-5.39,-1.40,5.63
13.360,-1.64,-4.15,-3.33,5.57
13.370,-3.02,-2.05,-5.12,6.29
13.380,-4.03,0.41,-6.35,7.54
13.390,-3.84,2.00,-5.81,7.25
13.400,-2.48,1.42,-4.17,5.05
13.410,-0.52,-0.18,-4.03,4.07
13.420,1.36,-1.74,-4.09,4.65
13.430,2.55,-2.85,-3.49,5.18
13.440,3.04,-3.23,-2.73,5.21
13.449,2.77,-2.98,-1.41,4.30
13.459,1.90,-2.20,0.42,2.94
13.469,0.81,-1.02,1.72,2.16
13.480,-0.23,1.60,2.18,2.71
13.489,-1.06,6.13,1.66,6.44
13.500,-0.59,9.78,-1.01,9.85
13.510,0.17,12.19,-3.05,12.57
13.521,1.24,13.40,-2.80,13.74
13.529,2.52,11.77,-1.30,12.10
13.539,3.16,8.23,0.19,8.82
13.549,3.32,5.07,1.12,6.16
13.559,3.33,2.58,2.31,4.81
13.569,2.83,0.62,4.21,5.11
13.579,1.84,-1.12,6.25,6.61
13.589,1.45,-2.49,6.27,6.90
13.599,1.65,-3.04,4.56,5.73
13.609,1.27,-2.75,3.56,4.67
13.619,0.55,-2.00,2.74,3.43
13.629,-0.42,-1.31,1.71,2.19
13.639,-1.31,-0.68,0.71,1.64
13.649,-2.05,-0.46,0.16,2.11
13.659,-2.68,-0.50,-0.26,2.73
13.669,-3.27,-0.57,-0.34,3.33
13.679,-3.70,-0.68,0.46,3.79
13.689,-3.77,-0.84,1.53,4.16
13.699,-3.46,-1.12,2.38,4.35
13.709,-2.92,-1.47,2.97,4.42
13.719,-2.60,-1.52,3.17,4.37
13.729,-2.67,-1.44,3.14,4.37
13.739,-2.84,-1.60,2.98,4.41
13.749,-2.77,-1.94,2.63,4.28
13.759,-2.42,-2.18,1.97,3.80
13.769,-1.84,-2.26,1.18,3.14
13.779,-0.88,-2.12,0.26,2.31
13.789,0.53,-1.88,-0.46,2.01
13.799,2.47,-1.75,-1.16,3.25
13.809,4.50,-1.93,-2.28,5.40
13.819,5.72,-2.44,-3.07,6.94
13.829,5.95,-3.04,-3.42,7.51
13.839,5.66,-3.81,-4.71,8.29
13.849,5.09,-2.68,-5.84,8.20
13.859,3.87,0.68,-5.18,6.51
13.869,2.66,1.51,-3.22,4.44
13.879,1.87,0.35,-2.95,3.51
13.889,1.24,0.56,-3.14,3.43
13.899,1.42,2.58,-1.52,3.31
13.909,1.53,4.22,2.05,4.94
13.919,1.17,5.66,4.79,7.50
13.929,0.27,6.73,4.91,8.34
13.939,-0.54,7.20,4.40,8.45
13.949,-0.93,6.36,2.91,7.05
13.959,-1.62,4.21,1.66,4.81
13.969,-2.28,2.74,1.48,3.87
13.979,-2.46,2.40,1.36,3.70
13.989,-2.26,2.57,1.32,3.67
13.999,-1.80,2.82,1.04,3.51
14.009,-2.19,1.97,0.18,2.95
14.018,-3.43,1.64,0.31,3.82
14.029,-4.75,3.13,1.76,5.95
14.039,-5.66,4.80,2.57,7.85
14.049,-5.98,4.93,0.49,7.77
14.059,-5.84,3.34,-1.42,6.87
14.069,-5.05,1.35,-2.02,5.60
14.079,-3.09,0.27,-1.22,3.33
14.088,-1.55,-0.05,-0.41,1.61
14.099,-0.52,-0.62,0.17,0.83
14.109,0.41,-1.22,0.63,1.43
14.119,1.04,-1.47,0.62,1.91
14.128,1.25,-1.62,0.46,2.10
14.138,1.36,-1.59,0.19,2.10
14.149,1.43,-1.76,0.08,2.26
14.159,1.55,-2.10,-0.00,2.61
14.168,1.75,-2.32,-0.19,2.91
14.178,1.87,-2.36,-0.29,3.03
14.188,1.85,-2.44,-0.29,3.07
14.198,1.65,-2.36,-0.39,2.91
14.208,1.31,-2.13,-0.69,2.60
14.218,0.98,-1.82,-1.12,2.35
14.228,0.86,-1.53,-1.67,2.42
14.238,0.93,-1.29,-2.24,2.75
14.248,1.00,-1.18,-2.66,3.07
14.258,0.95,-0.97,-3.29,3.56
14.268,0.82,-0.85,-3.92,4.09
14.278,0.43,-0.92,-3.92,4.05
14.288,-0.43,-1.34,-3.25,3.55
14.298,-1.55,-2.21,-2.12,3.43
14.308,-2.24,-3.75,-1.22,4.54
14.318,-2.01,-5.81,-0.55,6.17
14.328,-1.41,-7.11,-0.11,7.24
14.338,-1.07,-6.49,-0.53,6.60
14.348,-1.50,-4.21,-1.30,4.66
14.358,-2.71,-1.06,-2.70,3.97
14.368,-3.32,1.81,-4.61,5.96
14.378,-2.96,3.52,-5.64,7.28
14.388,-1.67,3.45,-5.56,6.75
14.398,0.18,2.02,-5.34,5.71
14.408,1.84,0.13,-4.86,5.20
14.418,3.23,-1.23,-4.23,5.46
14.428,4.22,-1.79,-3.37,5.69
14.438,4.51,-2.14,-2.33,5.51
14.448,4.32,-2.23,-1.02,4.97
14.458,3.57,-1.99,0.54,4.12
14.468,2.43,-1.34,1.84,3.33
14.478,1.19,-0.27,2.28,2.59
14.488,0.27,1.69,0.75,1.87
14.498,-0.48,4.91,-1.38,5.12
14.508,-0.64,7.84,-2.56,8.27
14.518,0.00,9.63,-3.14,10.13
14.528,1.18,10.58,-2.88,11.03
14.538,2.30,10.12,-1.79,10.53
14.548,2.32,7.83,0.71,8.20
14.558,1.68,4.94,2.73,5.89
14.568,1.09,2.59,4.26,5.11
14.578,0.39,0.65,5.64,5.70
14.588,-0.04,-1.08,5.87,5.97
14.598,0.58,-2.12,4.65,5.14
14.607,1.42,-2.93,3.60,4.85
14.618,1.45,-3.39,3.24,4.91
14.628,1.13,-3.05,2.36,4.02
14.638,0.76,-2.14,1.32,2.62
14.648,0.13,-1.35,0.76,1.56
14.658,-0.88,-0.92,0.40,1.33
14.668,-1.98,-0.53,0.28,2.07
14.678,-2.94,-0.52,0.63,3.05
14.688,-3.69,-0.86,1.34,4.01
14.697,-4.09,-1.24,2.17,4.80
14.707,-4.24,-1.65,2.79,5.34
14.718,-4.17,-1.92,3.04,5.50
14.728,-3.95,-1.97,2.92,5.29
14.738,-3.66,-2.06,2.73,5.01
14.748,-3.19,-2.24,2.33,4.54
14.758,-2.46,-2.37,1.65,3.79
14.768,-1.50,-2.30,1.00,2.92
14.778,-0.33,-1.91,0.40,1.98
14.787,1.12,-1.21,-0.20,1.66
14.797,2.86,-1.09,-1.58,3.44
14.808,4.61,-1.83,-3.37,5.99
14.817,5.64,-2.68,-3.76,7.29
14.828,6.20,-3.10,-3.39,7.72
14.837,6.74,-3.54,-4.17,8.68
14.848,6.85,-2.26,-4.92,8.73
14.857,5.22,0.94,-4.08,6.69
14.868,3.73,1.48,-2.42,4.69
14.877,3.18,1.38,-3.07,4.63
14.887,2.80,3.18,-2.91,5.14
14.897,2.38,4.99,0.42,5.54
14.907,1.42,6.15,3.16,7.05
14.917,-0.31,6.61,4.07,7.77
14.927,-2.33,5.92,3.69,7.36
14.937,-3.78,4.06,2.83,6.23
14.947,-4.31,1.92,1.85,5.06
14.957,-4.22,1.30,1.53,4.67
14.967,-3.57,2.08,2.02,4.60
14.977,-2.29,3.24,2.16,4.52
14.987,-1.28,3.73,1.83,4.35
14.997,-0.91,4.11,0.57,4.25
15.007,-1.08,5.00,-0.76,5.17
15.017,-1.92,5.64,0.18,5.96
15.027,-3.00,6.04,2.80,7.30
15.037,-3.62,4.99,2.70,6.73
15.047,-4.01,2.65,1.04,4.92
15.057,-3.95,0.51,-0.83,4.07
15.067,-3.52,-0.92,-1.09,3.80
15.077,-2.98,-1.50,-0.47,3.37
15.087,-1.68,-2.13,0.16,2.72
15.097,-1.63,-2.04,-0.12,2.62
15.107,-1.58,-1.07,-0.55,1.99
15.117,-1.47,-1.18,-0.41,1.93
15.127,-1.32,-1.61,-0.02,2.08
15.137,-0.79,-1.84,0.05,2.01
15.147,0.10,-2.03,-0.21,2.05
15.157,1.03,-2.09,-0.49,2.38
15.167,1.65,-1.98,-0.55,2.63
15.177,1.88,-1.95,-0.54,2.76
15.187,1.78,-2.05,-0.38,2.75
15.197,1.35,-2.01,-0.18,2.43
15.207,0.92,-1.81,-0.34,2.05
15.217,0.73,-1.53,-0.91,1.92
15.227,0.75,-1.46,-1.24,2.06
15.237,0.89,-1.50,-1.75,2.47
15.247,0.97,-1.61,-2.71,3.30
15.257,0.90,-1.83,-3.45,4.01
15.267,0.67,-1.99,-4.04,4.56
15.277,0.51,-1.93,-4.24,4.69
15.287,0.35,-1.84,-3.76,4.20
15.297,0.06,-2.33,-2.63,3.51
15.307,-0.17,-3.53,-1.74,3.94
15.317,-0.20,-5.00,-1.22,5.15
15.327,-0.26,-5.87,-1.13,5.98
15.336,-0.62,-5.22,-1.93,5.60
15.347,-1.49,-3.16,-3.07,4.65
15.357,-2.96,-0.51,-4.28,5.23
15.367,-3.91,2.11,-5.49,7.06
15.377,-3.82,3.51,-5.18,7.33
15.387,-2.56,2.49,-3.98,5.35
15.397,-0.49,0.11,-3.73,3.77
15.407,1.69,-1.95,-3.66,4.48
15.417,3.54,-3.10,-3.46,5.83
15.427,4.54,-3.34,-3.15,6.46
15.437,4.63,-3.17,-2.43,6.12
15.446,3.83,-2.60,-0.67,4.68
15.456,2.51,-1.51,1.38,3.23
15.466,1.19,0.12,2.30,2.59
15.476,-0.08,2.81,1.39,3.14
15.486,-1.08,6.64,-0.50,6.74
15.496,-1.29,9.76,-2.88,10.26
15.506,-0.99,11.72,-3.20,12.19
15.517,0.10,12.58,-3.03,12.94
15.526,2.02,11.59,-2.20,11.97
15.536,3.16,8.48,-0.42,9.06
15.546,3.04,5.40,1.50,6.38
15.557,2.38,2.80,3.94,5.39
15.566,1.45,0.83,6.36,6.58
15.576,0.70,-0.96,7.15,7.25
15.586,0.76,-2.64,5.79,6.41
15.596,1.45,-3.62,4.66,6.08
15.606,1.48,-4.23,4.43,6.30
15.616,0.86,-3.64,3.35,5.02
15.626,0.31,-2.23,1.79,2.88
15.636,-0.39,-1.41,1.04,1.80
15.646,-1.15,-0.95,0.45,1.56
15.656,-1.93,-0.74,-0.07,2.07
15.666,-2.58,-0.75,-0.01,2.69
15.676,-2.99,-0.96,0.84,3.25
15.686,-3.14,-1.30,1.96,3.93
15.696,-3.06,-1.70,2.79,4.48
15.706,-2.92,-1.91,2.98,4.59
15.716,-2.92,-1.88,2.68,4.39
15.726,-3.01,-1.91,2.28,4.23
15.736,-2.78,-2.01,1.83,3.89
15.746,-2.17,-2.01,1.34,3.25
15.756,-1.34,-1.93,0.78,2.48
15.766,-0.30,-1.59,0.26,1.64
15.776,1.20,-1.09,-0.39,1.67
15.786,3.03,-1.28,-1.79,3.74
15.796,4.70,-2.40,-3.41,6.29
15.806,5.53,-3.36,-3.73,7.46
15.816,5.69,-3.88,-3.71,7.83
15.826,6.02,-4.13,-5.25,9.00
15.836,5.89,-2.22,-5.87,8.60
15.846,3.93,1.01,-3.62,5.44
15.856,2.39,1.02,-2.04,3.30
15.866,1.71,0.41,-2.07,2.72
15.876,1.34,1.50,-1.40,2.45
15.886,1.08,3.32,1.05,3.65
15.896,0.21,4.81,3.20,5.78
15.906,-1.38,5.74,3.31,6.77
15.916,-2.48,6.32,2.90,7.38
15.926,-3.00,7.04,3.34,8.35
15.936,-3.05,6.74,2.38,7.77
15.946,-2.78,5.83,0.78,6.51
15.956,-2.67,4.71,0.91,5.49
15.966,-2.26,4.05,1.76,4.95
15.976,-1.69,3.88,2.14,4.74
15.986,-1.92,3.44,1.89,4.37
15.996,-2.75,2.76,1.15,4.06
16.006,-3.36,2.53,1.08,4.34
16.016,-4.00,3.32,1.79,5.49
16.025,-4.32,3.94,1.54,6.05
16.036,-4.36,3.13,0.30,5.37
16.045,-3.79,0.80,-1.04,4.01
16.055,-2.98,-0.66,-1.02,3.22
16.065,-1.81,-0.88,-0.84,2.18
16.076,-0.72,-1.24,-0.15,1.44
16.086,-0.15,-1.45,0.07,1.46
16.096,-0.22,-1.37,0.25,1.41
16.106,-0.71,-1.37,-0.18,1.55
16.115,-0.95,-1.48,-0.34,1.79
16.126,-0.74,-1.55,-0.24,1.74
16.135,-0.17,-1.61,-0.12,1.63
16.145,0.54,-1.82,-0.09,1.90
16.155,1.11,-2.01,-0.18,2.30
16.165,1.41,-2.19,-0.42,2.64
16.175,1.46,-2.15,-0.53,2.65
16.185,1.28,-1.96,-0.20,2.35
16.195,0.91,-1.64,-0.12,1.87
16.205,0.76,-1.25,-0.60,1.58
16.215,0.67,-0.90,-0.98,1.49
16.225,0.55,-0.67,-1.39,1.64
16.235,0.40,-0.57,-2.02,2.14
16.245,0.10,-0.52,-2.67,2.72
16.255,-0.37,-0.58,-3.24,3.31
16.265,-0.83,-0.76,-3.69,3.86
16.275,-1.15,-1.14,-3.78,4.11
16.285,-1.38,-2.02,-3.31,4.12
16.295,-1.40,-3.41,-2.53,4.47
16.305,-1.00,-5.06,-1.74,5.45
16.315,-0.51,-6.32,-1.34,6.48
16.325,-0.35,-6.37,-1.95,6.67
16.335,-0.90,-4.66,-3.32,5.79
16.345,-2.22,-1.97,-4.69,5.55
16.355,-3.38,0.51,-5.62,6.58
16.365,-3.34,2.24,-5.36,6.71
16.375,-2.03,2.36,-4.23,5.25
16.385,0.10,1.17,-3.96,4.13
16.395,2.00,-0.78,-3.72,4.29
16.405,3.23,-2.27,-3.60,5.35
16.415,3.84,-2.76,-3.35,5.79
16.425,3.81,-2.83,-2.23,5.24
16.435,3.20,-2.45,-0.10,4.03
16.445,2.18,-1.34,1.93,3.20
16.455,0.95,0.30,2.58,2.77
16.465,-0.28,3.24,1.19,3.47
16.475,-1.15,7.55,-0.53,7.65
16.485,-0.96,10.70,-2.42,11.01
16.495,-0.36,12.21,-2.33,12.44
16.506,1.07,12.44,-1.97,12.64
16.515,2.81,10.58,-0.68,10.97
16.525,3.14,7.31,1.18,8.05
16.535,2.69,4.25,2.88,5.79
16.545,2.17,1.68,4.89,5.61
16.555,1.36,-0.44,6.74,6.89
16.564,0.80,-2.46,6.87,7.35
16.575,1.52,-3.60,5.04,6.37
16.585,2.10,-4.44,4.09,6.39
16.594,1.82,-4.49,3.49,5.97
16.605,0.95,-3.30,1.96,3.95
16.615,0.25,-1.71,0.69,1.86
16.625,-0.47,-0.91,0.06,1.02
16.635,-1.39,-0.52,-0.31,1.52
16.645,-2.37,-0.38,-0.40,2.43
16.655,-3.15,-0.48,0.10,3.19
16.665,-3.76,-0.65,1.31,4.04
16.675,-3.97,-0.75,2.44,4.73
16.685,-3.83,-0.89,2.71,4.77
16.695,-3.69,-1.10,2.68,4.69
16.705,-3.66,-1.35,2.46,4.61
16.715,-3.59,-1.58,2.11,4.45
16.725,-3.13,-1.90,1.67,4.03
16.735,-2.40,-2.24,1.05,3.45
16.744,-1.50,-2.24,0.21,2.71
16.754,-0.40,-2.04,-0.51,2.14
16.764,1.05,-1.89,-1.05,2.40
16.775,2.95,-1.77,-2.13,4.05
16.784,4.67,-2.29,-3.36,6.20
16.795,5.73,-2.95,-3.57,7.37
16.804,6.27,-3.43,-3.31,7.88
16.814,6.76,-3.72,-3.63,8.53
16.824,6.75,-2.31,-4.17,8.26
16.834,4.86,0.42,-3.48,5.99
16.844,2.71,1.01,-1.79,3.40
16.854,1.58,0.96,-1.93,2.67
16.864,0.94,1.92,-2.12,3.01
16.874,0.71,3.69,-0.39,3.78
16.884,0.53,5.14,2.08,5.57
16.894,-0.09,5.84,3.23,6.68
16.904,-0.85,6.04,3.21,6.90
16.914,-1.66,6.00,3.45,7.12
16.924,-2.50,5.26,4.37,7.28
16.934,-2.63,4.41,3.31,6.11
16.944,-2.29,4.33,2.14,5.34
16.954,-2.12,4.64,2.58,5.72
16.964,-1.76,5.12,2.53,5.98
16.974,-1.86,4.93,1.53,5.49
16.984,-2.51,4.31,0.53,5.02
16.994,-3.25,3.45,0.08,4.74
17.004,-3.99,3.49,0.84,5.37
17.014,-4.05,3.74,0.98,5.60
17.024,-3.95,2.65,0.18,4.76
17.034,-3.86,0.92,-0.64,4.02
17.044,-3.34,-0.15,-0.70,3.42
17.054,-2.16,-0.56,0.01,2.23
17.064,-1.19,-0.97,0.40,1.59
17.074,-0.99,-0.80,0.35,1.32
17.084,-1.36,-0.71,0.01,1.54
17.094,-1.64,-1.03,-0.10,1.94
17.104,-1.69,-1.34,-0.12,2.16
17.114,-1.37,-1.53,-0.24,2.07
17.124,-0.61,-1.62,-0.39,1.77
17.134,0.25,-1.77,-0.38,1.83
17.144,1.00,-1.91,-0.49,2.21
17.154,1.48,-2.01,-0.63,2.58
17.164,1.70,-2.08,-0.53,2.74
17.174,1.82,-2.09,-0.36,2.79
17.184,1.88,-1.95,-0.32,2.73
17.194,1.93,-1.75,-0.56,2.67
17.204,2.01,-1.63,-0.82,2.72
17.214,2.11,-1.47,-1.29,2.88
17.224,2.15,-1.34,-1.97,3.21
17.234,1.89,-1.32,-2.71,3.56
17.244,1.34,-1.38,-3.30,3.82
17.254,0.78,-1.45,-3.65,4.00
17.264,0.37,-1.56,-3.65,3.99
17.274,0.07,-1.98,-3.03,3.62
17.284,-0.12,-2.78,-1.99,3.42
17.294,-0.00,-3.77,-1.06,3.92
17.303,0.14,-4.75,-0.56,4.78
17.313,-0.04,-5.15,-0.85,5.22
17.323,-0.78,-4.40,-1.94,4.88
17.334,-2.02,-2.61,-3.26,4.64
17.343,-3.16,-0.42,-4.55,5.56
17.354,-3.69,1.30,-5.51,6.76
17.364,-3.03,1.50,-4.93,5.98
17.373,-1.52,-0.02,-4.11,4.38
17.384,0.13,-1.61,-3.86,4.18
17.394,1.86,-2.68,-3.58,4.84
17.404,3.17,-3.16,-3.04,5.41
17.413,3.64,-3.07,-2.55,5.40
17.423,3.38,-2.71,-1.76,4.67
17.433,2.67,-1.87,-0.33,3.28
17.444,1.66,-0.62,0.98,2.03
17.453,0.52,1.40,1.61,2.20
17.464,-0.32,5.25,0.72,5.31
17.473,-0.59,9.20,-1.03,9.27
17.483,-0.15,10.98,-1.92,11.15
17.494,0.59,12.10,-2.15,12.30
17.504,1.79,11.55,-1.75,11.81
17.513,2.75,9.32,0.14,9.72
17.523,2.76,6.24,1.62,7.02
17.533,2.50,3.59,2.94,5.27
17.543,2.07,1.54,4.41,5.11
17.553,1.29,-0.17,5.71,5.85
17.563,0.88,-1.44,6.12,6.35
17.573,1.17,-2.30,5.00,5.63
17.583,1.40,-2.53,3.88,4.84
17.593,1.16,-2.24,2.96,3.88
17.603,0.98,-1.62,1.47,2.40
17.613,0.47,-1.16,0.73,1.45
17.623,-0.38,-0.83,0.43,1.01
17.633,-1.19,-0.66,-0.14,1.37
17.643,-2.03,-0.83,-0.33,2.22
17.653,-2.83,-1.21,0.29,3.09
17.663,-3.43,-1.56,1.45,4.04
17.673,-3.73,-1.72,2.45,4.78
17.683,-3.76,-1.71,2.83,5.00
17.693,-3.78,-1.82,2.62,4.95
17.703,-3.92,-2.05,2.19,4.93
17.713,-3.84,-2.30,1.69,4.79
17.723,-3.46,-2.55,1.16,4.45
17.733,-2.74,-2.64,0.43,3.83
17.743,-1.64,-2.41,-0.32,2.93
17.753,-0.11,-2.00,-0.75,2.14
17.763,1.70,-1.71,-1.43,2.80
17.773,3.66,-1.95,-2.73,4.97
17.783,5.14,-2.49,-3.13,6.51
17.793,5.87,-2.94,-2.90,7.18
17.803,6.38,-3.44,-3.52,8.06
17.813,6.59,-2.64,-4.77,8.56
17.823,5.09,0.91,-4.16,6.64
17.833,3.18,2.11,-2.05,4.33
17.843,2.42,1.12,-1.80,3.22
17.853,2.39,1.22,-1.80,3.23
17.863,2.17,2.46,0.67,3.34
17.873,1.62,3.72,3.41,5.30
17.883,0.21,4.66,3.77,6.00
17.893,-1.63,4.95,2.98,6.00
17.903,-2.78,5.17,2.26,6.29
17.913,-3.34,5.27,2.53,6.74
17.923,-3.49,5.08,2.13,6.52
17.933,-3.17,5.02,1.49,6.12
17.943,-2.84,4.60,1.52,5.62
17.953,-2.35,3.79,1.64,4.75
17.963,-1.99,3.18,1.09,3.91
17.973,-1.98,3.18,0.49,3.78
17.983,-2.58,3.16,0.74,4.15
17.993,-3.21,3.06,1.76,4.77
18.003,-3.29,3.23,2.41,5.20
18.013,-3.10,2.57,1.61,4.34
18.022,-3.36,1.00,0.24,3.51
18.032,-3.39,-0.25,-1.04,3.55
18.043,-2.66,-0.91,-0.95,2.96
18.052,-2.02,-0.99,-0.25,2.26
18.062,-1.70,-0.42,-0.43,1.80
18.072,-1.69,0.30,-0.63,1.83
18.082,-1.79,0.24,-0.22,1.82
18.092,-1.79,-0.13,0.49,1.86
18.102,-1.44,-0.53,0.20,1.55
18.112,-0.72,-0.99,-0.55,1.35
18.122,0.06,-1.38,-0.83,1.61
18.133,0.73,-1.60,-0.73,1.91
18.142,1.26,-1.70,-0.51,2.18
18.152,1.52,-1.84,-0.38,2.42
18.162,1.63,-1.99,-0.23,2.58
18.172,1.65,-2.03,-0.15,2.62
18.182,1.71,-1.79,-0.31,2.50
18.192,1.77,-1.39,-0.59,2.33
18.202,1.79,-1.22,-0.79,2.30
18.212,1.78,-1.02,-1.30,2.42
18.222,1.61,-0.78,-1.94,2.64
18.232,1.15,-0.63,-2.52,2.84
18.242,0.41,-0.60,-2.91,3.00
18.252,-0.30,-0.80,-3.18,3.29
18.262,-0.84,-1.31,-3.22,3.58
18.272,-1.24,-2.34,-2.95,3.96
18.282,-1.41,-3.79,-2.21,4.61
18.292,-1.06,-5.52,-1.37,5.78
18.302,-0.50,-6.73,-0.76,6.79
18.312,-0.23,-6.36,-0.87,6.43
18.322,-0.58,-4.36,-1.59,4.67
18.332,-1.91,-1.54,-2.54,3.53
18.342,-3.35,1.13,-3.72,5.13
18.352,-4.14,3.35,-5.07,7.35
18.362,-3.79,4.13,-5.02,7.52
18.372,-2.42,3.13,-4.09,5.69
18.382,-0.48,1.05,-3.85,4.02
18.392,1.62,-1.16,-3.51,4.03
18.402,3.38,-2.56,-3.02,5.20
18.412,4.47,-3.09,-2.82,6.12
18.422,4.57,-3.35,-2.32,6.12
18.432,4.03,-3.14,-1.02,5.21
18.442,3.10,-2.39,0.66,3.97
18.452,1.78,-1.21,1.95,2.91
18.462,0.55,0.19,2.10,2.18
18.472,-0.34,3.05,0.86,3.18
18.482,-0.90,6.76,-1.00,6.90
18.492,-0.73,8.85,-2.57,9.24
18.502,-0.28,9.97,-2.44,10.27
18.512,0.83,10.42,-1.93,10.63
18.522,1.94,9.19,-0.49,9.40
18.532,2.10,6.63,1.16,7.05
18.542,1.66,4.19,2.89,5.35
18.551,1.14,1.97,4.43,4.98
18.562,0.38,0.17,5.75,5.77
18.572,0.02,-1.41,6.07,6.23
18.582,0.73,-2.52,4.65,5.34
18.592,1.27,-3.33,4.04,5.39
18.602,1.20,-3.45,3.65,5.17
18.612,1.01,-2.59,2.18,3.53
18.622,0.81,-1.30,0.68,1.68
18.632,0.18,-0.52,0.02,0.55
18.642,-0.55,-0.17,-0.53,0.78
18.652,-1.28,-0.19,-0.88,1.57
18.662,-1.98,-0.37,-0.39,2.05
18.671,-2.55,-0.66,0.81,2.76
18.682,-2.93,-1.00,2.08,3.73
18.692,-3.14,-1.28,2.83,4.42
18.701,-3.29,-1.33,2.91,4.59
18.711,-3.42,-1.46,2.48,4.47
18.721,-3.50,-1.80,2.04,4.44
18.732,-3.32,-2.19,1.50,4.25
18.741,-2.82,-2.59,0.85,3.92
18.751,-2.05,-2.66,0.12,3.36
18.761,-0.98,-2.51,-0.70,2.78
18.771,0.28,-2.21,-1.32,2.59
18.781,1.82,-1.92,-2.12,3.39
18.791,3.68,-1.75,-3.23,5.20
18.801,5.01,-2.07,-3.82,6.64
18.811,5.84,-2.43,-3.48,7.22
18.821,6.46,-2.87,-3.20,7.76
18.831,6.81,-2.59,-3.38,8.04
18.841,5.84,-0.65,-3.20,6.69
18.851,3.75,0.18,-1.82,4.17
18.861,2.07,-0.18,-1.87,2.79
18.871,1.40,0.41,-2.73,3.10
18.881,1.17,2.26,-1.24,2.83
18.891,1.27,3.88,1.01,4.21
18.901,0.72,5.03,1.94,5.44
18.911,-0.65,5.68,2.62,6.29
18.921,-1.59,5.87,2.75,6.67
18.931,-2.28,5.44,2.48,6.40
18.941,-2.84,4.29,1.77,5.44
18.951,-3.00,3.35,1.28,4.67
18.961,-2.92,3.19,1.85,4.70
18.971,-2.59,3.66,3.13,5.47
18.981,-1.93,4.05,3.30,5.57
18.991,-1.45,3.94,2.04,4.67
19.001,-1.63,3.76,0.65,4.15
19.011,-2.29,3.39,0.30,4.10
19.021,-2.85,3.25,1.02,4.44
19.031,-2.98,3.06,1.29,4.46
19.041,-2.59,2.22,0.37,3.43
19.051,-1.94,0.56,-0.24,2.03
19.061,-1.27,-0.98,0.06,1.60
19.071,-0.82,-1.08,-0.44,1.42
19.081,-0.62,-0.96,0.09,1.15
19.091,-1.43,-0.60,0.68,1.69
19.101,-2.29,-0.23,0.68,2.40
19.111,-2.69,-0.39,0.79,2.83
19.121,-2.81,-0.54,0.76,2.96
19.131,-2.61,-0.58,0.46,2.71
19.141,-2.02,-0.60,0.33,2.13
19.151,-1.28,-0.64,0.37,1.48
19.161,-0.53,-0.76,0.27,0.96
19.171,0.08,-0.84,0.06,0.84
19.181,0.48,-0.86,-0.23,1.01
19.191,0.74,-0.99,-0.13,1.24
19.201,0.94,-1.15,0.01,1.49
19.211,1.11,-1.22,-0.04,1.66
19.221,1.22,-1.18,-0.25,1.72
19.231,1.23,-1.16,-0.68,1.82
19.241,1.11,-1.07,-1.30,2.02
19.251,0.86,-1.04,-1.99,2.40
19.261,0.41,-0.94,-2.63,2.82
19.271,-0.04,-0.99,-3.20,3.35
19.281,-0.26,-1.37,-3.40,3.68
19.291,-0.21,-1.96,-3.25,3.80
19.301,-0.13,-3.02,-2.97,4.24
19.311,-0.25,-4.51,-2.69,5.26
19.320,-0.27,-5.90,-2.44,6.39
19.331,-0.12,-5.99,-2.07,6.34
19.340,0.00,-4.99,-1.72,5.28
19.350,-0.27,-3.50,-1.92,4.00
19.360,-0.87,-1.62,-2.32,2.97
19.370,-1.96,0.25,-3.00,3.59
19.380,-2.62,1.88,-3.94,5.09
19.390,-2.54,2.80,-4.66,6.00
19.400,-1.56,2.53,-4.53,5.42
19.410,0.04,1.48,-4.16,4.42
19.420,1.73,0.45,-3.69,4.10
19.430,2.79,-0.39,-2.89,4.04
19.440,3.04,-0.95,-1.95,3.74
19.450,2.86,-1.40,-0.99,3.34
19.460,2.44,-1.37,-0.06,2.80
19.470,1.71,-1.11,1.00,2.27
19.480,1.01,-0.39,2.33,2.57
19.490,0.10,1.91,2.65,3.26
19.500,-0.50,4.61,1.14,4.77
19.510,-0.11,6.10,-1.00,6.18
19.520,0.22,6.92,-1.20,7.02
19.530,0.60,7.02,0.11,7.05
19.540,1.38,6.35,0.54,6.52
19.550,2.58,4.53,-0.20,5.21
19.560,2.78,3.29,0.94,4.41
19.570,2.24,2.03,3.32,4.49
19.580,1.70,0.54,4.69,5.02
19.590,1.23,-0.34,4.68,4.85
19.600,0.51,-0.99,4.19,4.34
19.610,-0.08,-1.79,3.43,3.87
19.620,0.05,-2.10,3.34,3.94
19.630,0.10,-1.20,2.48,2.76
19.640,0.32,-0.32,1.70,1.76
19.650,0.22,0.09,1.20,1.23
19.660,-0.25,0.12,0.39,0.48
19.670,-0.81,0.03,-0.06,0.81
19.680,-1.55,-0.25,-0.04,1.57
19.690,-2.32,-0.54,0.54,2.44
19.700,-2.84,-0.67,1.33,3.21
19.710,-3.04,-0.73,1.98,3.70
19.720,-2.93,-0.74,2.20,3.74
19.730,-2.58,-0.76,2.11,3.42
19.740,-2.23,-0.89,1.79,3.00
19.750,-1.98,-0.98,1.23,2.53
19.760,-1.69,-1.43,0.76,2.34
19.770,-1.27,-2.01,0.73,2.48
19.780,-0.55,-2.38,0.18,2.45
19.790,0.57,-2.56,-0.46,2.66
19.800,1.76,-2.01,-1.43,3.03
19.810,2.79,-1.51,-1.85,3.67
19.820,3.36,-1.55,-1.94,4.18
19.830,3.37,-1.81,-2.34,4.48
19.840,3.08,-2.02,-2.72,4.58
19.850,3.12,-1.95,-3.12,4.82
19.860,3.29,-1.53,-3.81,5.27
19.870,2.70,-1.11,-3.51,4.57
19.880,1.85,-1.09,-2.22,3.09
19.890,1.30,-1.22,-1.24,2.17
19.900,1.07,-1.27,-0.99,1.93
19.910,1.61,0.22,-0.73,1.78
19.920,1.70,2.51,0.38,3.05
19.930,0.87,3.87,1.85,4.38
19.940,-0.02,4.88,2.65,5.56
19.950,-0.66,5.62,3.15,6.48
19.960,-0.89,5.93,3.24,6.82
19.970,-1.14,4.79,2.95,5.75
19.980,-1.58,3.51,2.83,4.78
19.989,-1.88,3.33,2.48,4.56
20.000,-2.21,3.15,2.05,4.36
20.009,-1.76,2.96,1.81,3.89
20.020,-1.06,2.91,1.58,3.47
20.029,-1.21,2.43,0.40,2.75
20.039,-2.49,2.43,-0.62,3.54
20.049,-3.33,2.74,-0.48,4.34
20.059,-3.07,2.89,0.04,4.21
20.069,-2.53,2.34,0.92,3.57
20.079,-1.55,1.24,0.36,2.02
20.089,-0.39,0.90,-0.24,1.01
20.099,-0.40,1.23,-0.08,1.30
20.109,-0.82,0.87,-0.09,1.20
20.119,-1.18,0.43,-0.17,1.27
20.129,-1.56,0.11,0.06,1.56
20.139,-1.39,-0.40,0.28,1.48
20.149,-0.87,-1.01,0.26,1.36
20.159,-0.42,-1.51,0.33,1.60
20.169,-0.02,-1.59,0.54,1.68
20.179,0.40,-1.32,0.62,1.51
20.189,0.90,-1.05,0.64,1.52
20.199,1.34,-0.89,0.67,1.74
20.209,1.30,-0.75,0.76,1.68
20.219,0.79,-0.62,0.63,1.19
20.229,0.20,-0.78,0.43,0.91
20.239,-0.20,-1.04,0.07,1.06
20.249,-0.45,-1.04,-0.58,1.27
20.259,-0.68,-0.70,-1.61,1.89
20.269,-0.79,-0.27,-2.41,2.55
20.279,-0.50,0.22,-2.88,2.93
20.289,-0.23,0.46,-2.93,2.97
20.299,-0.30,0.13,-2.93,2.95
20.309,-0.40,-0.57,-2.77,2.86
20.319,-0.46,-1.19,-1.99,2.36
20.329,-0.74,-1.63,-1.19,2.15
20.339,-1.06,-1.82,-0.40,2.15
20.349,-1.39,-1.71,-0.14,2.21
20.359,-1.70,-1.41,-0.71,2.32
20.369,-1.94,-0.91,-1.27,2.50
20.379,-2.05,0.08,-1.25,2.40
20.389,-1.82,0.77,-1.11,2.27
20.399,-1.72,1.49,-1.03,2.50
20.409,-1.43,2.67,-1.12,3.23
20.419,-0.59,3.73,-1.70,4.14
20.429,0.24,4.31,-2.34,4.91
20.439,0.95,5.12,-2.01,5.58
20.449,1.46,6.38,-0.84,6.60
20.459,1.59,6.96,-0.18,7.15
20.469,1.52,7.23,-0.04,7.39
20.479,0.96,4.15,0.74,4.33
20.489,0.41,4.36,3.21,5.43
20.499,0.64,3.75,3.18,4.96
20.509,0.45,3.26,3.46,4.78
20.519,0.05,3.17,3.55,4.76
20.529,0.30,3.22,2.73,4.24
20.539,0.61,3.59,1.68,4.01
20.549,0.84,2.82,0.16,2.95
20.559,1.56,1.90,-0.80,2.59
20.569,2.23,1.71,-0.73,2.90
20.579,2.44,1.47,-0.17,2.85
20.589,2.13,0.86,0.45,2.35
20.598,1.49,-0.11,0.93,1.76
20.608,1.01,-0.80,1.88,2.28
20.619,1.38,-0.51,2.23,2.67
20.628,2.07,0.19,1.35,2.48
20.639,2.27,0.72,0.33,2.41
20.649,2.43,1.35,0.20,2.79
20.659,2.70,1.19,0.65,3.02
20.669,2.99,-0.18,0.84,3.11
20.678,3.49,-0.95,1.04,3.77
20.688,4.02,-1.50,0.96,4.40
20.698,3.74,-2.12,0.03,4.29
20.708,3.41,-1.50,-0.84,3.82
20.718,3.03,-0.29,-1.31,3.31
20.728,2.56,-0.03,-1.27,2.86
20.738,2.03,-0.52,-1.58,2.63
20.748,1.13,-1.05,-1.37,2.06
20.758,0.44,-2.03,-1.20,2.40
20.768,0.12,-3.30,-0.77,3.40
20.778,0.38,-3.56,-0.28,3.59
20.788,1.15,-2.62,-0.85,2.99
20.798,1.90,-1.23,-1.27,2.60
20.808,2.14,-0.35,-1.57,2.67
20.818,2.14,-0.42,-1.91,2.90
20.828,2.08,-0.84,-1.91,2.95
20.838,1.72,-1.19,-1.46,2.55
20.848,1.30,-1.52,-1.42,2.45
20.858,1.06,-1.35,-1.64,2.38
20.868,0.60,-0.81,-1.21,1.57
20.878,0.47,-0.36,-1.64,1.74
20.888,0.66,0.08,-2.53,2.61
20.898,0.75,0.31,-2.22,2.36
20.908,1.02,0.09,-1.59,1.89
20.918,1.32,-0.27,-0.97,1.66
20.928,1.19,-0.72,-0.62,1.52
20.938,0.61,-0.09,-0.37,0.72
20.948,-0.24,2.84,3.75,4.71
20.958,-1.97,1.41,5.42,5.94
20.968,-1.77,-1.53,-2.68,3.56
20.978,-2.50,0.15,-0.81,2.63
20.988,-3.28,0.83,0.14,3.38
20.998,-3.49,0.36,-1.21,3.71
21.008,-3.70,0.41,-0.42,3.74
21.018,-3.10,0.04,-1.18,3.32
21.028,-2.32,1.01,1.71,3.06
21.038,-2.42,-0.08,5.95,6.43
21.048,-0.43,-3.92,0.31,3.96
21.058,0.71,-0.74,5.49,5.59
21.068,-0.01,0.95,5.74,5.82
21.078,-1.83,-0.53,2.94,3.50
21.088,-8.23,-0.42,-0.79,8.28
21.098,-7.59,1.12,0.97,7.73
21.108,-4.68,-0.74,-0.77,4.80
21.118,-0.33,-1.83,0.53,1.93
21.128,2.82,-1.84,0.54,3.41
21.138,3.38,-0.91,-3.47,4.92
21.148,2.02,-0.53,-5.49,5.87
21.158,0.79,-0.77,-3.51,3.68
21.168,0.98,-0.74,-0.67,1.39
21.178,2.00,-2.02,1.28,3.11
21.188,2.43,-1.68,3.10,4.28
21.198,0.45,-0.28,2.55,2.60
21.208,-0.19,-0.03,3.51,3.51
21.218,1.75,0.82,1.35,2.36
21.227,3.24,1.67,-0.69,3.71
21.238,3.82,2.17,-0.79,4.46
21.247,3.28,2.15,-0.62,3.97
21.258,1.99,1.38,-0.63,2.50
21.267,1.12,0.56,-0.48,1.34
21.278,0.89,0.60,0.66,1.26
21.288,0.86,0.84,1.91,2.26
21.298,0.45,1.56,2.53,3.01
21.308,-0.29,2.04,3.38,3.96
21.318,-0.70,2.39,2.25,3.36
21.328,-0.93,2.83,-0.67,3.05
21.337,-0.35,3.09,-2.15,3.78
21.347,0.53,3.23,-1.81,3.74
21.357,1.12,2.84,-0.85,3.17
21.368,1.54,1.04,1.47,2.37
21.377,0.78,-1.59,3.15,3.62
21.387,-0.38,-2.91,3.72,4.74
21.397,-1.38,-2.70,3.91,4.94
21.407,-1.63,-0.85,1.82,2.59
21.417,-0.65,1.11,0.74,1.48
21.427,-0.08,0.71,-0.67,0.98
21.437,0.44,-0.80,-2.75,2.90
21.447,1.82,-1.31,-2.36,3.26
21.457,2.77,-2.01,-1.19,3.62
21.467,2.71,-3.08,0.24,4.11
21.477,2.50,-3.39,1.49,4.47
21.487,1.94,-3.19,2.16,4.31
21.497,1.81,-2.92,2.52,4.26
21.507,1.55,-2.80,2.05,3.80
21.517,0.47,-1.92,1.48,2.47
21.527,1.08,-0.78,1.86,2.29
21.537,1.35,-0.87,0.83,1.81
21.547,1.23,-1.34,0.90,2.03
21.557,1.69,-1.44,0.59,2.30
21.567,1.47,-1.55,0.24,2.15
21.577,0.95,-1.53,-0.16,1.81
21.587,0.96,-0.83,-0.24,1.29
21.597,0.93,-0.37,-0.43,1.09
21.607,0.63,0.75,-0.71,1.21
21.617,0.15,1.31,-1.00,1.66
21.627,0.05,0.85,-0.87,1.22
21.637,0.50,-0.01,-0.50,0.71
21.647,0.83,-1.31,0.27,1.57
21.657,0.49,-1.77,0.42,1.88
21.667,0.38,-1.73,0.97,2.02
21.677,0.48,-1.95,1.00,2.24
21.687,0.96,-1.90,0.16,2.13
21.697,1.30,-1.53,-0.62,2.10
21.707,0.91,-1.03,-0.71,1.55
21.717,0.61,-0.72,-0.21,0.97
21.727,0.33,-0.89,0.16,0.96
21.737,-0.30,-0.84,0.41,0.98
21.747,-1.00,-0.09,0.41,1.08
21.757,-0.86,0.51,-0.03,1.01
21.767,-0.17,0.46,-0.67,0.83
21.777,0.31,0.17,-1.13,1.19
21.787,0.62,-0.26,-1.49,1.63
21.797,0.69,-0.29,-1.39,1.58
21.807,0.42,-0.46,-0.89,1.08
21.817,0.18,-0.29,-0.53,0.63
21.827,-0.16,0.26,-0.89,0.94
21.837,-0.20,1.00,-0.92,1.37
21.846,-0.42,1.09,-0.86,1.45
21.857,-0.48,0.96,-0.87,1.38
21.866,-0.23,0.69,-0.89,1.15
21.877,-0.16,0.15,-0.63,0.67
21.887,-0.33,-0.22,0.07,0.40
21.897,-0.63,-0.30,0.34,0.77
21.907,-0.75,0.25,0.28,0.84
21.916,-0.99,0.81,0.46,1.36
21.927,-1.23,0.83,0.27,1.51
21.937,-0.90,1.44,-0.36,1.73
