time,ax,ay,az,atotal
0.000,0.52,-0.09,0.94,1.08
0.010,0.33,-0.49,0.71,0.93
0.020,-0.06,-0.65,0.41,0.77
0.030,-0.49,-0.96,-0.03,1.08
0.040,-1.13,-1.27,-0.30,1.73
0.050,-2.05,-1.58,-0.70,2.68
0.060,-2.36,-1.38,-1.58,3.16
0.070,-1.88,-1.08,-2.00,2.95
0.080,-1.17,-1.14,-1.21,2.04
0.090,-0.46,-0.88,-1.12,1.49
0.100,0.19,-0.18,-1.15,1.18
0.110,0.76,0.14,-1.15,1.38
0.120,0.88,0.12,-0.57,1.06
0.130,1.17,0.13,-0.69,1.37
0.140,1.01,0.09,-0.86,1.33
0.150,0.12,-0.20,-0.99,1.01
0.160,-0.79,-0.65,-1.51,1.83
0.170,-1.74,-0.89,-2.35,3.06
0.180,-2.31,0.65,-2.93,3.79
0.190,-1.64,2.91,-3.01,4.50
0.200,-0.26,2.77,-2.18,3.54
0.210,1.18,1.71,-0.15,2.08
0.220,2.43,1.13,1.48,3.06
0.230,3.22,1.21,1.10,3.61
0.240,3.03,1.25,1.21,3.49
0.250,2.28,0.73,0.84,2.54
0.259,1.65,0.69,0.06,1.79
0.270,0.60,0.47,-0.19,0.78
0.280,-0.52,0.59,-0.78,1.11
0.289,-1.25,1.21,-1.75,2.47
0.300,-1.62,1.62,-1.77,2.89
0.310,-2.62,0.86,-2.56,3.76
0.319,-4.40,0.22,-3.53,5.65
0.330,-5.67,0.44,-4.09,7.01
0.340,-5.82,1.21,-4.17,7.26
0.350,-3.61,2.64,-2.24,5.00
0.359,0.13,3.27,2.23,3.96
0.369,4.26,1.94,5.74,7.41
0.380,6.65,-0.52,8.26,10.62
0.390,6.96,-2.62,8.94,11.63
0.399,5.71,-3.25,7.29,9.81
0.410,2.78,-2.93,5.24,6.62
0.420,-0.11,-2.34,1.94,3.04
0.430,-1.48,-0.25,-0.62,1.62
0.440,-1.68,1.92,-0.77,2.66
0.449,-0.24,1.63,0.48,1.71
0.459,2.05,0.49,2.38,3.18
0.469,3.51,-0.95,3.83,5.29
0.479,3.76,-1.93,3.83,5.70
0.489,2.86,-1.84,2.60,4.27
0.499,1.54,-0.89,0.80,1.95
0.509,0.63,0.11,-0.26,0.69
0.519,0.13,0.05,-0.25,0.28
0.529,0.02,-0.48,-0.18,0.52
0.539,-0.28,-0.99,-0.01,1.03
0.549,-0.32,-0.85,-0.22,0.93
0.559,-0.23,-0.63,-0.24,0.72
0.569,-0.31,-1.07,0.11,1.12
0.579,-0.31,-1.39,0.01,1.42
0.589,-0.52,-1.61,-0.10,1.69
0.599,-1.05,-1.61,-0.69,2.04
0.609,-1.30,-1.10,-1.19,2.08
0.619,-0.91,-0.58,-0.86,1.38
0.629,-0.09,-0.22,0.04,0.24
0.639,0.81,-0.04,0.79,1.13
0.649,1.48,0.47,1.24,1.99
0.659,1.81,0.93,1.27,2.40
0.669,1.75,0.86,1.16,2.27
0.679,1.33,0.71,0.66,1.64
0.689,0.56,0.52,0.23,0.79
0.699,-0.12,0.16,-0.42,0.47
0.709,-0.55,0.12,-1.09,1.23
0.719,-0.69,0.16,-1.55,1.71
0.729,-1.06,-0.25,-2.15,2.41
0.739,-1.54,-0.51,-2.49,2.97
0.749,-1.59,-0.54,-2.96,3.41
0.759,-1.09,-0.14,-3.11,3.30
0.769,-0.26,0.07,-2.57,2.59
0.779,0.55,0.03,-1.57,1.67
0.789,1.14,0.14,-0.85,1.43
0.799,1.67,1.01,-0.79,2.10
0.809,1.98,2.18,-0.53,2.99
0.819,1.56,3.03,-0.95,3.54
0.829,0.08,3.60,-0.76,3.68
0.839,-1.25,2.80,0.19,3.07
0.849,-1.48,2.71,-0.35,3.11
0.859,-1.55,3.80,-1.71,4.45
0.869,-1.54,4.89,-2.50,5.70
0.879,-0.95,5.69,-2.13,6.15
0.889,0.25,5.30,-2.05,5.69
0.899,0.75,3.84,-1.26,4.11
0.909,0.60,1.90,0.36,2.02
0.919,1.15,-0.23,1.16,1.65
0.929,1.16,-2.33,1.75,3.14
0.938,0.91,-3.19,0.99,3.46
0.949,0.66,-3.18,1.83,3.73
0.959,1.03,-3.30,1.15,3.64
0.969,1.29,-1.59,0.51,2.11
0.979,1.66,-2.82,3.47,4.77
0.989,2.17,-5.83,2.75,6.80
0.999,2.13,-5.80,1.51,6.36
1.009,2.00,-6.20,2.37,6.93
1.019,2.48,-5.99,1.24,6.61
1.028,2.66,-4.94,1.82,5.90
1.039,2.68,-3.95,1.78,5.10
1.048,2.51,-2.20,0.08,3.34
1.059,1.86,-0.04,-1.70,2.52
1.069,1.10,0.60,-1.86,2.24
1.079,0.94,0.37,-0.73,1.25
1.089,0.53,-0.22,1.67,1.77
1.099,-0.19,0.37,3.09,3.12
1.108,-0.56,1.40,3.38,3.71
1.118,-0.71,2.50,3.56,4.41
1.128,-0.68,2.61,2.91,3.98
1.138,-0.17,2.57,1.80,3.14
1.148,-0.05,3.25,0.14,3.25
1.159,-0.34,3.47,-1.40,3.76
1.168,-0.99,1.16,-2.03,2.54
1.178,-3.20,-2.87,-2.21,4.84
1.188,-5.38,-5.50,-3.25,8.35
1.198,-5.22,4.01,-1.62,6.78
1.208,-3.43,6.26,0.93,7.20
1.218,0.17,2.13,1.81,2.80
1.228,2.00,-0.18,3.84,4.33
1.238,3.09,-0.80,2.50,4.06
1.248,4.07,-1.30,-1.55,4.55
1.258,4.77,-1.37,-4.18,6.49
1.268,5.33,-2.02,-5.36,7.82
1.278,5.58,-2.66,-5.56,8.32
1.288,5.75,-3.66,-4.75,8.31
1.298,5.51,-4.75,-4.21,8.41
1.308,5.03,-5.07,-4.15,8.26
1.318,4.32,-5.43,-3.68,7.86
1.328,3.58,-4.59,-4.23,7.20
1.338,2.66,-2.66,-4.44,5.82
1.348,1.57,-1.20,-4.48,4.89
1.358,-0.39,-0.58,-3.04,3.12
1.368,-2.06,-1.41,-0.93,2.66
1.378,-2.77,-0.53,0.68,2.90
1.388,-2.99,0.50,2.75,4.09
1.398,-2.99,0.67,4.39,5.35
1.408,-2.69,0.61,5.23,5.91
1.418,-2.33,0.38,4.95,5.48
1.428,-1.83,-0.08,4.70,5.04
1.438,-1.20,-0.22,4.45,4.61
1.448,-0.53,-0.05,3.75,3.79
1.458,0.36,-0.37,3.51,3.55
1.468,1.41,-0.81,2.39,2.89
1.478,1.98,0.06,0.23,2.00
1.488,2.13,-0.30,-0.75,2.28
1.498,1.54,-1.71,-1.17,2.59
1.508,1.09,-1.38,-1.33,2.20
1.518,1.44,-0.55,-0.98,1.83
1.528,2.19,-0.99,-1.45,2.80
1.538,3.17,-1.35,-1.94,3.96
1.548,3.81,-1.47,-1.67,4.41
1.558,4.12,-0.92,-1.03,4.35
1.568,3.33,0.82,-0.20,3.44
1.578,2.14,1.75,-0.26,2.78
1.588,0.62,2.30,-0.19,2.39
1.598,-0.54,2.49,0.24,2.55
1.608,-0.94,2.24,-0.28,2.45
1.618,-1.65,1.89,-0.49,2.56
1.628,-3.41,2.56,-0.16,4.26
1.638,-4.39,3.38,-0.36,5.55
1.648,-3.79,3.99,-0.33,5.52
1.657,-2.07,4.90,0.49,5.34
1.668,-1.23,5.01,1.27,5.31
1.678,-0.24,4.80,1.67,5.09
1.688,1.40,3.33,2.18,4.22
1.697,5.08,5.42,-0.01,7.43
1.708,4.45,5.02,-0.89,6.77
1.718,1.41,5.37,-0.92,5.63
1.728,-0.28,0.21,0.63,0.72
1.738,-0.53,0.00,-0.86,1.01
1.747,0.18,0.75,-3.19,3.29
1.757,1.73,2.02,-3.19,4.15
1.768,2.95,1.12,1.33,3.42
1.778,4.23,-1.15,3.58,5.66
1.788,4.45,-2.05,-3.13,5.81
1.798,3.05,0.45,-13.79,14.13
1.808,0.48,-1.35,-6.18,6.35
1.817,-1.15,-5.22,-2.48,5.89
1.827,-1.70,-6.23,-2.08,6.78
1.837,-1.42,-5.89,-0.56,6.09
1.847,1.77,-6.04,0.01,6.29
1.857,2.95,-5.46,0.49,6.23
1.867,2.47,-4.74,0.86,5.42
1.877,4.66,-4.40,1.43,6.57
1.887,6.35,-3.30,0.61,7.18
1.897,5.64,-3.52,-3.28,7.42
1.907,4.82,-4.62,-4.12,7.84
1.917,1.77,-4.93,0.48,5.26
1.927,-1.35,-3.18,2.65,4.36
1.937,-2.42,-2.03,3.76,4.91
1.947,-2.67,-3.69,5.07,6.82
1.957,-2.48,-4.87,5.93,8.06
1.967,-2.57,-3.21,5.63,6.98
1.977,-2.34,1.09,5.16,5.77
1.987,-1.57,4.88,2.14,5.55
1.997,-0.92,5.46,-1.58,5.75
2.007,-0.16,5.09,-3.13,5.98
2.017,1.37,6.36,-4.52,7.93
2.027,1.74,5.70,-4.29,7.34
2.037,0.90,5.94,-2.71,6.59
2.047,-0.77,6.25,-1.16,6.41
2.057,-1.27,6.06,-0.86,6.26
2.067,-1.51,4.92,-1.33,5.31
2.077,-1.23,2.67,-0.92,3.08
2.087,0.68,1.87,-0.14,2.00
2.097,2.79,0.73,1.44,3.22
2.107,2.62,-1.25,2.36,3.74
2.117,0.21,-3.05,2.22,3.78
2.127,-2.04,-5.26,2.04,6.00
2.137,-1.72,-8.13,0.45,8.32
2.147,0.13,-9.62,-2.41,9.92
2.157,1.79,-9.17,-3.07,9.83
2.167,2.81,-6.86,-1.73,7.62
2.177,4.54,-5.01,-1.11,6.85
2.187,4.66,-3.72,0.34,5.97
2.197,2.22,-3.36,1.17,4.20
2.207,-0.21,-3.93,0.22,3.95
2.217,-2.39,-3.79,-0.51,4.51
2.227,-5.04,-3.12,-1.23,6.05
2.237,-6.62,-0.09,0.38,6.63
2.247,-6.28,1.34,3.10,7.13
2.257,-6.62,3.50,3.10,8.10
2.267,-7.44,7.33,0.99,10.49
2.277,-6.27,6.69,-0.50,9.18
2.287,-4.29,4.37,-0.95,6.19
2.297,-2.16,1.74,-1.39,3.10
2.307,0.31,-2.40,0.71,2.52
2.317,0.44,-1.60,5.37,5.62
2.327,1.40,3.47,-2.62,4.57
2.337,0.87,1.01,-2.97,3.26
2.346,0.48,-1.23,-0.48,1.41
2.356,0.31,-2.42,-0.94,2.61
2.366,-0.73,-2.22,-2.82,3.66
2.377,-0.58,-0.26,-6.21,6.24
2.387,-1.89,0.97,-7.53,7.82
2.397,-2.88,3.62,-9.23,10.32
2.406,-0.50,4.30,-11.07,11.89
2.416,2.04,2.28,-4.19,5.19
2.427,5.01,-0.11,0.21,5.02
2.437,4.16,-0.31,5.82,7.17
2.447,2.00,1.00,7.17,7.51
2.457,0.33,-1.34,5.66,5.83
2.466,-0.83,-4.23,2.53,5.00
2.476,-1.24,-3.73,0.46,3.96
2.486,1.38,-2.70,-0.43,3.07
2.497,3.86,-1.87,0.76,4.36
2.506,3.15,-3.59,2.40,5.35
2.516,1.18,-6.13,2.36,6.68
2.526,2.21,-7.88,0.34,8.19
2.536,4.79,-5.92,-13.21,15.25
2.546,-1.84,-5.08,-14.33,15.32
2.556,-3.31,-5.85,-2.10,7.04
2.566,-0.67,-3.20,-1.73,3.70
2.576,1.60,-0.95,-2.81,3.37
2.586,1.32,1.26,-0.75,1.97
2.596,0.15,3.67,0.03,3.68
2.606,-1.30,5.45,-2.13,5.99
2.616,0.11,1.28,-2.67,2.97
2.626,2.49,-3.84,-1.06,4.70
2.636,2.90,-7.55,0.33,8.09
2.646,1.67,-10.60,1.98,10.91
2.656,-0.31,-8.94,2.28,9.23
2.666,1.20,-6.15,2.17,6.63
2.676,3.33,-0.39,2.49,4.18
2.686,4.80,3.39,1.58,6.09
2.696,4.53,-0.49,1.40,4.77
2.706,3.04,-5.22,1.22,6.17
2.716,1.48,-0.84,2.43,2.96
2.726,1.53,2.90,4.10,5.25
2.736,0.68,4.05,1.27,4.30
2.746,0.16,3.10,0.55,3.15
2.756,-0.31,6.66,0.78,6.71
2.766,-3.97,12.78,0.22,13.38
2.776,-5.11,4.79,-2.08,7.31
2.786,-3.42,2.11,-2.99,5.01
2.796,-1.56,4.67,-2.72,5.63
2.806,0.43,4.48,-1.84,4.86
2.816,1.00,3.50,0.22,3.64
2.826,0.17,2.07,2.06,2.93
2.836,-0.51,1.64,2.21,2.80
2.846,-0.81,2.30,1.54,2.88
2.856,-1.51,2.69,0.42,3.11
2.866,-1.29,2.49,-0.10,2.81
2.876,-0.44,2.74,0.52,2.83
2.886,0.13,2.54,0.42,2.58
2.896,0.88,1.50,0.00,1.74
2.906,1.95,1.30,0.04,2.35
2.916,2.92,1.32,0.89,3.33
2.926,3.39,0.59,1.30,3.68
2.936,3.18,-0.40,1.46,3.52
2.946,3.09,-1.00,2.35,4.01
2.956,3.38,-1.06,2.89,4.57
2.966,3.78,-1.76,1.70,4.50
2.976,2.82,-3.13,-0.49,4.24
2.985,0.46,-2.54,-1.50,2.99
2.995,-0.63,-1.98,-2.43,3.20
3.006,-2.07,-0.63,-2.79,3.53
3.016,-2.45,-0.11,-3.52,4.29
3.026,-1.59,-1.11,-4.63,5.02
3.036,-0.56,-3.53,-4.14,5.46
3.045,0.43,-6.16,-2.78,6.77
3.056,1.34,-7.64,-2.31,8.10
3.066,2.08,-7.27,-2.16,7.87
3.075,2.52,-4.77,-1.95,5.73
3.085,3.15,-1.99,-1.89,4.18
3.095,4.01,-0.81,-1.71,4.43
3.105,4.52,-0.30,-1.94,4.93
3.116,4.69,-0.11,-2.41,5.27
3.125,4.21,0.30,-2.85,5.09
3.135,3.11,1.43,-3.39,4.82
3.145,1.67,3.21,-2.24,4.26
3.155,0.23,5.30,-0.98,5.40
3.166,-0.91,6.97,0.11,7.03
3.175,-1.62,6.69,0.70,6.91
3.186,-2.10,3.86,-0.36,4.41
3.195,-2.76,0.77,0.13,2.86
3.205,-3.56,-0.38,1.14,3.76
3.215,-4.18,-0.62,1.47,4.47
3.225,-4.09,-0.30,2.15,4.63
3.235,-3.27,0.70,2.67,4.28
3.245,-2.34,1.79,2.61,3.93
3.255,-1.43,2.89,1.94,3.76
3.265,-0.56,3.82,0.54,3.90
3.275,-0.18,3.95,-0.11,3.96
3.285,-0.11,3.03,-0.03,3.03
3.295,0.13,1.46,-0.51,1.55
3.305,0.14,0.28,-0.67,0.74
3.315,-0.02,-0.37,-0.09,0.38
3.325,-0.79,-0.99,0.04,1.27
3.335,-1.45,-1.09,0.03,1.81
3.345,-2.29,-1.20,0.24,2.60
3.355,-2.87,-0.60,0.08,2.93
3.365,-2.62,0.28,-0.51,2.68
3.375,-2.05,0.21,-0.62,2.15
3.385,-1.08,-0.55,-0.42,1.28
3.395,-0.29,-1.28,-0.34,1.35
3.405,0.21,-1.85,-0.73,2.00
3.415,0.61,-2.23,-1.03,2.53
3.425,0.99,-2.38,-1.06,2.79
3.435,1.27,-2.50,-0.98,2.97
3.445,1.31,-2.59,-0.80,3.01
3.455,1.12,-2.56,-0.68,2.88
3.465,0.98,-2.35,-0.91,2.71
3.475,0.97,-2.12,-1.23,2.64
3.485,1.00,-1.94,-1.40,2.60
3.495,1.00,-1.68,-1.38,2.39
3.505,0.88,-1.26,-1.35,2.05
3.515,0.43,-0.94,-1.42,1.76
3.525,-0.37,-0.73,-1.79,1.97
3.535,-1.25,-0.39,-2.38,2.72
3.545,-1.98,-0.00,-2.89,3.50
3.555,-2.54,0.33,-3.03,3.97
3.565,-2.85,0.33,-2.82,4.02
3.575,-2.80,-0.60,-2.55,3.83
3.584,-2.19,-2.38,-2.16,3.89
3.595,-0.97,-4.08,-1.46,4.44
3.605,0.19,-4.84,-1.09,4.97
3.615,0.45,-3.96,-1.37,4.21
3.625,-0.79,-1.54,-2.60,3.12
3.635,-2.82,0.94,-4.69,5.55
3.645,-4.04,2.37,-6.42,7.95
3.655,-3.66,2.21,-7.17,8.35
3.665,-2.23,0.77,-6.32,6.75
3.675,-0.02,-0.96,-5.30,5.38
3.684,2.14,-2.35,-4.35,5.38
3.694,3.72,-3.11,-3.43,5.93
3.705,4.41,-3.18,-2.78,6.11
3.715,4.20,-2.58,-1.88,5.28
3.724,3.53,-1.66,-0.63,3.95
3.734,2.48,-0.45,0.96,2.70
3.744,1.40,0.86,1.63,2.31
3.754,0.46,2.31,0.84,2.50
3.764,-0.66,4.83,-0.22,4.88
3.774,-1.63,7.51,-1.70,7.87
3.784,-1.83,8.72,-2.55,9.27
3.794,-1.51,9.09,-2.37,9.51
3.804,-0.74,9.24,-1.55,9.40
3.814,0.24,8.22,-0.25,8.23
3.824,0.70,6.05,1.55,6.29
3.834,0.36,3.87,3.33,5.12
3.844,-0.00,1.63,5.05,5.30
3.854,-0.08,-0.34,5.12,5.14
3.864,0.10,-1.78,3.89,4.28
3.874,0.39,-2.79,3.52,4.51
3.884,1.12,-2.95,3.85,4.98
3.894,1.76,-3.23,3.15,4.84
3.904,1.75,-3.30,1.86,4.17
3.914,0.96,-2.75,0.79,3.02
3.924,0.06,-1.79,0.36,1.83
3.934,-0.81,-0.84,0.44,1.25
3.944,-1.60,-0.27,0.39,1.67
3.954,-2.15,-0.08,0.62,2.24
3.964,-2.48,-0.25,1.18,2.76
3.974,-2.64,-0.70,1.93,3.34
3.984,-2.71,-1.28,2.52,3.92
3.994,-2.79,-1.74,2.77,4.31
4.004,-2.87,-2.04,2.76,4.48
4.014,-2.86,-2.11,2.62,4.42
4.024,-2.63,-2.15,2.37,4.15
4.034,-2.17,-2.31,2.09,3.80
4.044,-1.60,-2.45,1.47,3.28
4.054,-0.71,-2.44,0.59,2.61
4.064,0.49,-2.19,-0.26,2.26
4.074,1.81,-1.99,-1.29,2.98
4.084,3.26,-2.17,-2.80,4.82
4.094,4.83,-2.87,-4.12,6.96
4.104,5.86,-3.66,-4.30,8.14
4.114,6.09,-4.10,-4.12,8.41
4.124,6.04,-3.97,-4.78,8.67
4.134,5.43,-0.77,-5.48,7.75
4.144,3.71,2.98,-4.22,6.36
4.154,2.71,2.43,-1.64,3.99
4.164,2.35,1.93,-2.52,3.95
4.174,1.62,3.20,-3.13,4.76
4.184,1.08,4.37,-0.94,4.60
4.194,0.54,5.55,1.52,5.78
4.204,-0.89,6.30,2.63,6.89
4.214,-2.68,6.05,3.28,7.39
4.224,-3.79,5.16,3.88,7.49
4.234,-4.20,4.01,3.25,6.65
4.244,-3.90,3.02,1.48,5.15
4.254,-3.58,2.53,1.57,4.66
4.264,-2.97,2.65,2.23,4.56
4.274,-2.12,3.22,1.78,4.24
4.284,-1.84,3.50,0.51,3.99
4.294,-1.96,3.96,0.12,4.42
4.304,-2.54,4.32,1.52,5.23
4.314,-3.01,4.82,3.15,6.50
4.324,-3.29,4.34,2.56,6.01
4.334,-3.40,2.65,0.48,4.34
4.343,-3.10,0.87,-0.84,3.33
4.354,-2.14,-0.94,-0.49,2.39
4.364,-1.07,-2.23,-0.14,2.48
4.374,-0.52,-2.18,0.24,2.26
4.384,-0.66,-1.50,0.43,1.70
4.394,-0.91,-1.53,0.36,1.82
4.404,-0.85,-2.16,-0.16,2.32
4.413,-0.63,-2.60,-0.36,2.70
4.423,-0.43,-2.58,0.21,2.62
4.434,0.14,-2.28,-0.16,2.29
4.443,0.68,-2.25,-0.69,2.45
4.453,1.05,-2.39,-0.77,2.72
4.463,1.35,-2.30,-0.65,2.74
4.473,1.16,-1.98,-0.37,2.32
4.483,0.77,-1.87,-0.05,2.02
4.493,0.75,-1.61,-0.82,1.96
4.503,0.85,-1.19,-1.55,2.13
4.513,0.90,-0.85,-2.03,2.38
4.523,0.72,-0.77,-2.41,2.63
4.533,0.34,-0.86,-2.84,2.99
4.543,-0.10,-0.95,-3.58,3.70
4.553,-0.43,-1.06,-4.22,4.37
4.563,-0.69,-1.31,-4.25,4.51
4.573,-0.79,-2.08,-3.66,4.28
4.583,-0.58,-3.76,-2.46,4.52
4.593,0.26,-5.74,-1.20,5.87
4.603,1.12,-7.21,-0.97,7.36
4.613,0.91,-7.00,-1.61,7.23
4.623,-0.73,-4.59,-3.43,5.78
4.633,-3.44,-1.56,-5.29,6.50
4.643,-5.08,0.93,-6.76,8.51
4.653,-4.81,2.12,-6.43,8.30
4.663,-3.15,0.98,-4.38,5.49
4.673,-0.93,-0.98,-3.40,3.66
4.683,1.75,-2.81,-3.47,4.80
4.693,3.90,-3.96,-3.50,6.57
4.703,4.87,-3.60,-3.07,6.79
4.713,4.71,-2.43,-2.14,5.72
4.723,3.75,-0.69,-0.50,3.84
4.733,2.38,1.21,0.80,2.79
4.743,0.91,3.84,0.24,3.95
4.753,-0.61,8.61,-1.09,8.70
4.763,-1.37,12.84,-2.52,13.16
4.774,-1.37,14.80,-3.11,15.19
4.784,-0.85,14.20,-2.47,14.44
4.793,0.30,11.60,-1.38,11.69
4.803,1.58,8.44,0.40,8.60
4.813,2.02,5.57,2.65,6.50
4.823,1.47,2.98,4.49,5.58
4.833,0.84,0.81,5.46,5.58
4.843,0.58,-0.88,5.08,5.18
4.853,0.50,-2.23,4.47,5.02
4.863,0.70,-2.92,4.40,5.33
4.873,1.63,-3.00,4.10,5.33
4.883,1.90,-3.54,3.50,5.33
4.893,1.51,-3.59,2.61,4.69
4.903,0.51,-2.92,1.64,3.39
4.913,-0.51,-1.90,1.46,2.45
4.923,-1.51,-1.16,1.56,2.46
4.933,-2.29,-0.74,1.66,2.92
4.943,-2.87,-0.67,2.04,3.58
4.952,-3.21,-0.89,2.52,4.18
4.963,-3.36,-1.23,3.03,4.69
4.973,-3.39,-1.56,3.28,4.96
4.983,-3.43,-1.80,3.15,4.99
4.992,-3.43,-1.85,2.79,4.79
5.003,-3.22,-1.99,2.28,4.42
5.013,-2.65,-2.19,1.77,3.87
5.022,-1.83,-2.31,1.26,3.20
5.033,-0.79,-2.23,0.52,2.43
5.042,0.40,-2.00,-0.33,2.06
5.052,1.78,-1.79,-1.43,2.90
5.063,3.41,-2.15,-3.09,5.08
5.073,5.02,-2.76,-4.37,7.21
5.083,5.96,-3.12,-4.11,7.89
5.092,6.19,-3.51,-4.32,8.32
5.102,6.38,-3.26,-5.49,9.03
5.112,5.90,-0.09,-5.16,7.84
5.123,4.07,2.13,-2.88,5.42
5.132,2.61,0.65,-1.15,2.93
5.142,1.38,0.30,-1.22,1.87
5.152,1.08,1.45,-1.14,2.14
5.162,1.10,2.87,0.01,3.08
5.173,0.14,3.74,1.50,4.04
5.182,-1.18,4.90,2.69,5.71
5.192,-1.97,6.32,4.82,8.19
5.202,-2.23,7.84,5.98,10.11
5.212,-1.95,8.81,3.53,9.69
5.222,-2.17,8.29,0.91,8.62
5.232,-3.17,6.30,1.30,7.17
5.242,-3.77,4.42,2.21,6.22
5.252,-3.82,3.14,1.96,5.32
5.262,-3.92,1.92,1.08,4.50
5.273,-4.19,1.22,0.64,4.41
5.282,-4.64,1.26,0.29,4.82
5.292,-5.01,1.98,0.41,5.40
5.302,-5.14,2.63,0.68,5.81
5.312,-4.97,2.94,0.78,5.82
5.322,-3.47,2.28,0.82,4.23
5.332,-1.56,0.83,0.38,1.81
5.342,-0.24,-0.06,-0.05,0.25
5.352,0.38,-0.85,0.07,0.93
5.362,0.27,-1.42,0.39,1.50
5.372,-0.38,-1.81,0.53,1.92
5.382,-0.88,-2.10,-0.13,2.28
5.392,-0.86,-2.18,-0.90,2.51
5.402,-0.62,-1.96,-0.99,2.28
5.412,-0.05,-1.47,-0.61,1.59
5.422,0.70,-1.22,-0.44,1.47
5.432,1.34,-1.34,-0.48,1.95
5.442,1.80,-1.64,-0.64,2.52
5.452,2.20,-2.07,-0.52,3.07
5.462,2.45,-2.34,-0.09,3.39
5.472,2.38,-2.20,0.03,3.24
5.482,2.20,-1.89,-0.29,2.92
5.492,1.96,-1.53,-0.79,2.61
5.502,1.72,-1.27,-1.21,2.46
5.512,1.48,-1.07,-1.69,2.49
5.522,1.03,-1.01,-2.23,2.66
5.532,0.39,-1.06,-2.67,2.91
5.542,-0.23,-1.15,-2.99,3.21
5.552,-0.82,-1.42,-3.20,3.59
5.562,-1.33,-2.06,-3.04,3.91
5.571,-1.55,-3.29,-2.35,4.33
5.582,-1.22,-4.81,-1.75,5.26
5.592,-0.70,-6.04,-1.48,6.25
5.602,-0.45,-6.18,-1.80,6.45
5.612,-0.48,-4.87,-2.52,5.50
5.622,-1.44,-2.32,-3.35,4.32
5.632,-2.96,0.41,-4.67,5.55
5.642,-3.54,2.10,-5.04,6.51
5.652,-2.56,1.68,-4.05,5.08
5.662,-0.56,0.23,-4.00,4.05
5.671,1.48,-1.19,-4.26,4.66
5.682,2.97,-2.25,-4.25,5.65
5.692,3.66,-2.47,-3.86,5.86
5.701,3.60,-2.05,-3.04,5.14
5.711,2.96,-1.25,-1.49,3.54
5.722,1.91,-0.14,0.21,1.92
5.732,0.96,1.06,1.35,1.96
5.741,0.27,3.48,0.83,3.59
5.751,-0.55,6.66,-0.89,6.74
5.761,-0.69,8.97,-2.01,9.22
5.771,-0.57,10.06,-1.62,10.21
5.781,0.24,10.52,-0.92,10.56
5.791,1.53,9.90,-0.34,10.02
5.801,2.23,8.02,0.53,8.34
5.811,2.10,5.76,1.74,6.38
5.821,1.50,3.47,3.64,5.25
5.831,0.90,1.33,4.71,4.97
5.841,0.54,-0.31,4.68,4.72
5.851,0.45,-1.69,4.54,4.86
5.861,0.74,-2.49,4.21,4.95
5.871,1.51,-2.59,3.93,4.94
5.881,1.87,-3.07,3.34,4.91
5.891,1.76,-3.13,2.63,4.45
5.901,1.03,-2.48,1.47,3.06
5.911,0.33,-1.50,0.45,1.60
5.921,-0.52,-0.75,0.42,1.01
5.931,-1.47,-0.37,0.74,1.69
5.941,-2.13,-0.32,1.21,2.47
5.951,-2.62,-0.51,1.98,3.32
5.961,-2.95,-0.82,2.65,4.05
5.971,-3.17,-1.21,2.87,4.45
5.981,-3.34,-1.39,2.67,4.50
5.991,-3.45,-1.48,2.34,4.43
6.001,-3.30,-1.65,1.95,4.17
6.011,-2.80,-1.91,1.52,3.71
6.021,-2.01,-2.05,1.06,3.06
6.031,-0.96,-1.96,0.55,2.25
6.041,0.43,-1.57,0.10,1.63
6.051,2.13,-1.32,-0.42,2.54
6.061,3.81,-1.60,-1.84,4.52
6.071,4.98,-2.38,-3.17,6.36
6.081,5.41,-3.01,-3.09,6.92
6.091,5.54,-3.23,-2.96,7.06
6.101,5.74,-3.17,-3.48,7.42
6.111,5.80,-1.62,-4.10,7.29
6.121,4.72,0.85,-3.47,5.92
6.131,3.30,0.85,-1.62,3.78
6.141,2.37,0.86,-1.98,3.21
6.151,1.98,3.07,-2.42,4.38
6.161,1.82,5.04,-0.52,5.38
6.171,1.23,5.95,1.46,6.25
6.181,0.15,6.63,2.53,7.09
6.191,-1.27,6.55,2.85,7.26
6.201,-2.74,5.15,2.82,6.48
6.211,-3.88,2.89,2.34,5.37
6.221,-4.41,1.31,1.87,4.97
6.231,-4.29,0.76,2.18,4.87
6.241,-3.47,1.03,2.35,4.32
6.251,-2.53,1.72,2.13,3.72
6.261,-1.85,2.37,1.23,3.25
6.271,-1.81,2.75,0.16,3.30
6.281,-2.32,3.15,0.28,3.92
6.291,-3.10,3.58,1.56,4.99
6.301,-3.67,3.94,2.13,5.79
6.311,-3.85,3.58,1.12,5.37
6.321,-3.67,2.18,0.22,4.27
6.331,-3.39,0.28,-1.05,3.56
6.341,-2.48,-0.62,-1.23,2.83
6.351,-1.48,-0.66,-0.22,1.63
6.361,-0.68,-0.53,0.97,1.30
6.371,-0.54,-0.66,1.22,1.49
6.381,-0.94,-1.02,0.93,1.67
6.391,-1.11,-1.40,0.19,1.79
6.401,-0.93,-1.57,-0.41,1.87
6.411,-0.39,-1.48,-0.62,1.65
6.420,0.26,-1.27,-0.51,1.39
6.431,0.86,-1.11,-0.21,1.42
6.441,1.28,-1.05,-0.00,1.65
6.450,1.51,-0.97,0.03,1.80
6.460,1.48,-0.88,0.07,1.73
6.470,1.30,-0.82,-0.14,1.54
6.480,1.01,-0.79,-0.46,1.36
6.490,0.70,-0.82,-0.80,1.35
6.500,0.52,-0.94,-1.21,1.62
6.510,0.45,-1.10,-1.76,2.12
6.520,0.35,-1.17,-2.35,2.65
6.530,0.13,-1.37,-2.95,3.25
6.540,-0.18,-1.68,-3.26,3.67
6.550,-0.49,-2.17,-3.49,4.14
6.560,-0.86,-2.67,-3.55,4.53
6.570,-1.25,-3.30,-3.22,4.78
6.580,-1.39,-4.14,-2.76,5.16
6.590,-1.15,-5.02,-2.26,5.62
6.600,-0.89,-5.64,-1.82,6.00
6.610,-0.59,-5.43,-1.95,5.80
6.620,-0.35,-3.93,-2.68,4.77
6.630,-0.90,-1.68,-3.47,3.96
6.640,-2.20,0.67,-4.62,5.16
6.650,-3.07,2.45,-5.13,6.46
6.660,-2.68,2.95,-4.52,6.02
6.670,-1.01,1.87,-3.93,4.47
6.680,1.24,-0.09,-3.85,4.04
6.690,3.29,-1.75,-3.77,5.30
6.700,4.58,-2.36,-3.51,6.23
6.710,4.80,-2.50,-3.03,6.20
6.720,4.23,-2.21,-2.05,5.19
6.730,3.00,-1.50,-0.31,3.37
6.740,1.59,-0.55,1.29,2.12
6.750,0.41,0.72,1.93,2.10
6.760,-0.76,3.00,1.00,3.25
6.770,-1.87,6.10,-0.81,6.43
6.780,-2.12,8.40,-2.00,8.89
6.790,-1.91,9.44,-2.13,9.86
6.800,-0.77,9.89,-1.45,10.03
6.810,0.95,9.40,-0.39,9.46
6.820,1.98,7.41,1.49,7.81
6.830,1.90,5.12,3.32,6.39
6.840,1.63,2.92,4.12,5.30
6.850,1.20,0.81,4.53,4.75
6.860,0.94,-0.93,4.90,5.07
6.870,0.91,-2.16,5.44,5.92
6.880,1.65,-2.58,5.10,5.95
6.890,2.11,-3.00,4.08,5.48
6.900,1.89,-2.98,2.97,4.61
6.910,1.36,-2.41,1.51,3.15
6.920,0.75,-1.60,0.20,1.78
6.930,-0.17,-0.95,-0.36,1.03
6.939,-1.23,-0.46,-0.31,1.35
6.950,-2.07,-0.14,0.16,2.09
6.960,-2.57,-0.29,1.11,2.82
6.970,-2.83,-0.69,2.14,3.61
6.980,-2.93,-1.14,2.90,4.28
6.990,-2.94,-1.45,3.03,4.46
7.000,-2.98,-1.49,2.71,4.29
7.009,-3.05,-1.60,2.21,4.09
7.019,-2.75,-1.88,1.48,3.65
7.029,-2.04,-2.09,0.87,3.05
7.040,-1.16,-2.19,0.31,2.50
7.049,-0.05,-1.86,-0.38,1.90
7.060,1.45,-1.37,-0.98,2.22
7.069,3.19,-1.30,-2.00,3.99
7.080,4.78,-1.95,-3.08,6.01
7.089,5.81,-2.61,-3.16,7.12
7.099,6.05,-3.36,-2.76,7.45
7.110,5.97,-3.98,-3.51,7.99
7.119,5.62,-2.63,-4.78,7.83
7.129,3.99,0.47,-3.97,5.65
7.139,2.24,0.62,-1.97,3.05
7.150,1.46,0.37,-1.98,2.49
7.159,1.30,1.77,-1.81,2.84
7.170,1.44,3.62,-0.31,3.91
7.179,1.03,4.71,1.75,5.13
7.189,-0.53,5.31,2.81,6.03
7.199,-2.09,5.41,2.35,6.26
7.209,-2.94,5.20,2.49,6.47
7.219,-3.37,4.73,3.03,6.55
7.229,-3.31,4.17,2.33,5.81
7.239,-3.07,3.69,1.84,5.14
7.249,-2.81,3.30,2.23,4.88
7.259,-2.18,3.39,2.33,4.66
7.269,-1.48,3.50,1.45,4.06
7.279,-1.73,2.97,0.84,3.54
7.289,-2.34,2.64,0.91,3.64
7.299,-2.85,2.52,1.61,4.13
7.309,-3.12,2.73,1.88,4.55
7.319,-3.29,2.56,1.21,4.34
7.329,-3.28,1.53,0.47,3.65
7.339,-3.00,-0.06,-1.22,3.24
7.349,-2.26,-1.22,-1.55,3.00
7.359,-1.57,-1.49,-0.23,2.17
7.369,-1.28,-1.03,0.80,1.83
7.379,-1.49,-0.93,0.86,1.95
7.389,-1.70,-1.23,0.33,2.12
7.399,-1.66,-1.43,0.25,2.21
7.409,-1.43,-1.43,0.00,2.02
7.419,-0.87,-1.45,-0.37,1.73
7.429,-0.04,-1.35,-0.71,1.53
7.439,0.76,-1.26,-0.81,1.68
7.449,1.29,-1.34,-0.73,2.00
7.459,1.58,-1.46,-0.58,2.23
7.469,1.68,-1.46,-0.40,2.26
7.479,1.58,-1.18,-0.48,2.03
7.489,1.40,-0.90,-0.75,1.83
7.499,1.23,-0.77,-1.17,1.86
7.509,1.18,-0.66,-1.71,2.18
7.519,1.09,-0.56,-2.38,2.68
7.529,0.80,-0.55,-3.02,3.17
7.539,0.26,-0.74,-3.50,3.59
7.549,-0.40,-1.13,-3.61,3.80
7.559,-0.99,-1.69,-3.50,4.01
7.569,-1.34,-2.73,-3.17,4.39
7.579,-1.40,-4.36,-2.25,5.10
7.588,-0.78,-5.92,-1.31,6.11
7.599,0.10,-6.91,-0.85,6.96
7.609,0.34,-6.75,-0.60,6.79
7.619,-0.11,-4.77,-0.98,4.87
7.629,-1.19,-2.02,-2.05,3.11
7.639,-2.68,0.42,-3.68,4.57
7.649,-4.00,2.39,-5.27,7.03
7.659,-4.20,3.24,-5.37,7.54
7.669,-2.99,2.57,-4.50,5.98
7.679,-0.60,0.92,-4.17,4.31
7.689,1.97,-0.56,-3.93,4.43
7.699,3.89,-1.26,-3.82,5.59
7.709,4.87,-1.77,-3.86,6.46
7.718,4.87,-2.00,-3.21,6.16
7.728,4.01,-1.68,-1.23,4.52
7.738,2.64,-0.95,1.06,3.00
7.749,1.27,-0.17,2.61,2.91
7.758,-0.19,1.21,2.53,2.81
7.769,-1.48,3.81,0.48,4.11
7.778,-2.14,6.56,-1.61,7.09
7.788,-2.24,8.21,-2.76,8.94
7.798,-1.66,9.30,-2.68,9.82
7.808,-0.08,10.03,-2.05,10.24
7.818,1.51,9.11,-0.98,9.28
7.828,2.00,6.51,1.26,6.93
7.838,1.79,3.99,3.31,5.49
7.848,1.51,1.63,4.39,4.92
7.858,1.15,-0.40,4.98,5.12
7.869,0.99,-1.96,5.84,6.24
7.878,1.68,-2.56,5.54,6.33
7.888,2.15,-3.00,4.24,5.62
7.898,1.85,-2.92,3.15,4.67
7.908,1.16,-2.20,1.92,3.15
7.918,0.41,-1.20,0.71,1.45
7.928,-0.60,-0.71,0.08,0.93
7.938,-1.56,-0.55,-0.50,1.73
7.948,-2.39,-0.60,-0.50,2.52
7.958,-3.09,-0.91,0.31,3.24
7.968,-3.47,-1.29,1.19,3.89
7.978,-3.50,-1.80,2.08,4.45
7.988,-3.35,-2.04,2.70,4.76
7.998,-3.13,-1.79,2.74,4.53
8.008,-2.95,-1.80,2.52,4.28
8.018,-2.80,-2.15,2.15,4.14
8.028,-2.42,-2.50,1.59,3.82
8.038,-1.80,-2.76,0.95,3.43
8.048,-0.94,-2.64,0.26,2.82
8.058,0.26,-2.19,-0.35,2.24
8.068,1.83,-1.74,-1.06,2.74
8.078,3.60,-1.48,-2.46,4.61
8.088,5.10,-1.72,-3.48,6.41
8.098,5.77,-2.07,-3.29,6.96
8.108,5.91,-2.78,-3.57,7.45
8.118,6.04,-2.82,-4.78,8.20
8.128,5.41,-0.32,-5.24,7.54
8.138,3.64,1.21,-3.96,5.51
8.148,2.22,0.45,-3.33,4.03
8.158,1.56,0.89,-3.38,3.83
8.168,1.34,2.09,-1.55,2.93
8.178,1.12,3.28,1.21,3.67
8.188,0.31,4.16,2.86,5.06
8.198,-1.37,4.89,3.08,5.93
8.208,-2.70,5.28,3.46,6.87
8.218,-3.09,5.62,3.71,7.41
8.228,-3.06,5.72,2.52,6.96
8.238,-3.07,5.07,1.45,6.10
8.248,-3.15,3.77,1.38,5.10
8.258,-3.00,2.80,1.58,4.39
8.268,-2.61,2.30,1.41,3.75
8.278,-2.44,1.79,0.91,3.17
8.288,-2.65,1.76,0.88,3.30
8.298,-2.91,2.39,2.33,4.43
8.308,-2.84,3.62,2.65,5.31
8.318,-2.99,3.94,1.82,5.27
8.328,-3.41,2.90,0.99,4.58
8.338,-3.24,1.23,0.18,3.47
8.348,-2.52,-0.31,-1.25,2.83
8.358,-1.29,-0.89,-1.43,2.12
8.368,-0.43,-1.12,-0.11,1.20
8.378,-0.12,-1.28,1.01,1.63
8.388,-0.61,-1.32,1.49,2.08
8.398,-1.14,-1.50,1.14,2.21
8.408,-1.34,-1.62,0.42,2.15
8.417,-1.07,-1.41,0.11,1.77
8.428,-0.44,-1.25,-0.11,1.33
8.437,0.24,-1.22,-0.46,1.33
8.448,0.72,-1.22,-0.73,1.60
8.457,0.99,-1.36,-0.79,1.86
8.468,1.07,-1.52,-0.52,1.93
8.478,1.10,-1.41,-0.52,1.86
8.487,1.11,-1.19,-0.90,1.86
8.498,1.04,-1.00,-1.23,1.89
8.507,1.02,-0.94,-1.43,2.00
8.517,0.94,-1.03,-1.44,2.01
8.527,0.82,-1.09,-1.99,2.41
8.537,0.58,-1.09,-2.66,2.93
8.547,0.19,-1.23,-3.23,3.46
8.557,-0.13,-1.55,-3.64,3.96
8.567,-0.37,-1.88,-3.64,4.11
8.577,-0.55,-2.43,-3.09,3.97
8.587,-0.60,-3.42,-2.02,4.02
8.597,-0.34,-4.61,-1.03,4.74
8.607,-0.01,-5.65,-0.93,5.73
8.617,-0.15,-5.85,-1.45,6.03
8.627,-0.93,-4.75,-2.78,5.58
8.637,-2.06,-2.76,-4.70,5.83
8.647,-3.50,-0.37,-6.17,7.11
8.657,-3.97,1.58,-5.81,7.21
8.667,-2.87,2.05,-4.50,5.72
8.677,-0.84,0.91,-3.81,4.00
8.687,1.42,-0.88,-3.60,3.97
8.697,3.17,-2.15,-3.58,5.25
8.707,3.93,-2.42,-3.39,5.73
8.717,3.89,-2.16,-2.79,5.25
8.727,3.28,-1.51,-0.90,3.72
8.737,2.40,-0.49,1.21,2.73
8.747,1.38,0.99,2.43,2.97
8.757,0.21,3.48,1.77,3.91
8.767,-1.05,6.99,0.38,7.08
8.777,-1.26,9.45,-1.58,9.67
8.787,-1.14,10.88,-2.17,11.15
8.797,-0.23,11.30,-1.75,11.43
8.807,1.40,10.06,-0.70,10.18
8.817,2.51,7.40,0.33,7.82
8.827,2.48,4.75,2.10,5.76
8.837,2.12,2.39,3.78,4.95
8.847,1.47,0.41,5.30,5.51
8.857,0.92,-1.28,5.78,5.99
8.867,1.05,-2.49,5.21,5.87
8.877,1.62,-3.24,4.34,5.66
8.887,1.55,-3.91,3.72,5.61
8.897,1.00,-3.44,2.50,4.37
8.907,0.20,-2.18,0.81,2.33
8.917,-0.69,-1.04,-0.02,1.25
8.927,-1.62,-0.56,-0.31,1.74
8.937,-2.46,-0.32,-0.43,2.52
8.947,-2.99,-0.40,0.06,3.02
8.957,-3.14,-0.71,1.13,3.41
8.967,-3.00,-1.01,2.35,3.95
8.977,-2.76,-1.32,3.18,4.41
8.987,-2.65,-1.59,3.28,4.51
8.997,-2.75,-1.70,2.86,4.32
9.007,-2.86,-1.77,2.35,4.10
9.017,-2.73,-2.00,1.92,3.89
9.027,-2.25,-2.22,1.31,3.42
9.037,-1.46,-2.28,0.48,2.74
9.047,-0.33,-1.87,-0.35,1.93
9.056,1.18,-1.31,-0.91,1.98
9.067,3.06,-0.85,-1.86,3.68
9.077,5.03,-1.09,-3.20,6.06
9.086,6.23,-1.98,-3.30,7.33
9.097,6.53,-2.99,-2.53,7.62
9.106,6.48,-3.86,-2.86,8.07
9.116,6.08,-2.80,-4.23,7.92
9.126,4.32,0.67,-4.23,6.08
9.136,2.32,1.30,-3.03,4.03
9.147,1.31,0.65,-3.53,3.82
9.156,0.90,0.95,-3.38,3.62
9.167,0.79,1.98,-1.41,2.55
9.176,0.45,3.19,1.15,3.42
9.186,-0.51,4.15,3.27,5.31
9.196,-2.03,4.76,3.86,6.45
9.206,-2.94,4.92,3.68,6.82
9.216,-3.19,5.05,3.45,6.90
9.226,-3.26,4.73,2.40,6.23
9.236,-3.35,3.64,1.53,5.18
9.246,-3.16,2.81,1.19,4.40
9.256,-2.39,2.93,1.11,3.94
9.266,-1.59,3.14,0.97,3.66
9.276,-1.24,3.22,0.17,3.45
9.286,-1.62,3.44,0.00,3.80
9.296,-2.38,3.40,1.70,4.48
9.306,-2.77,3.74,2.77,5.41
9.316,-2.87,3.57,1.91,4.96
9.326,-2.95,2.31,0.56,3.79
9.336,-2.94,0.59,-0.15,3.00
9.346,-2.03,-0.58,-1.12,2.39
9.356,-1.20,-1.35,-1.11,2.12
9.366,-0.59,-1.16,0.25,1.33
9.376,-0.54,-0.44,1.28,1.46
9.386,-0.77,-0.54,1.29,1.59
9.396,-0.95,-1.31,0.90,1.85
9.406,-1.05,-1.82,0.47,2.16
9.416,-0.77,-1.79,0.08,1.96
9.426,0.00,-1.56,-0.40,1.61
9.436,0.81,-1.57,-0.70,1.90
9.446,1.05,-1.71,-0.05,2.01
9.456,1.17,-1.73,-0.28,2.11
9.466,1.20,-1.72,-0.50,2.16
9.476,1.01,-1.56,-0.29,1.88
9.486,0.77,-1.37,-0.20,1.58
9.496,0.66,-1.13,-0.48,1.40
9.506,0.55,-0.85,-1.05,1.46
9.516,0.45,-0.54,-1.69,1.83
9.526,0.26,-0.29,-2.45,2.48
9.536,-0.05,-0.43,-3.15,3.18
9.546,-0.39,-0.75,-3.67,3.77
9.556,-0.80,-1.16,-3.86,4.11
9.566,-1.24,-1.67,-3.36,3.95
9.576,-1.58,-2.76,-2.19,3.86
9.586,-1.23,-4.53,-1.26,4.86
9.596,-0.43,-6.29,-0.77,6.35
9.606,-0.15,-6.89,-0.86,6.95
9.615,-0.32,-5.63,-2.33,6.10
9.626,-1.54,-2.84,-3.76,4.96
9.636,-3.25,0.08,-5.14,6.08
9.646,-4.25,2.38,-5.93,7.67
9.656,-3.88,3.17,-4.85,6.98
9.666,-1.99,2.18,-3.91,4.90
9.675,0.57,0.15,-3.53,3.58
9.686,2.89,-1.83,-3.30,4.75
9.696,4.52,-2.67,-3.34,6.23
9.706,5.11,-2.71,-3.36,6.69
9.716,4.80,-2.34,-2.56,5.92
9.726,3.95,-1.67,-0.76,4.36
9.736,2.76,-0.82,1.39,3.20
9.746,1.52,0.13,2.80,3.19
9.756,0.40,2.17,2.22,3.13
9.766,-0.79,5.36,-0.18,5.42
9.775,-1.43,7.98,-1.86,8.32
9.785,-1.36,9.26,-2.63,9.73
9.796,-0.73,10.07,-2.21,10.33
9.805,0.71,9.90,-1.53,10.04
9.815,1.82,8.09,0.38,8.30
9.825,1.85,5.74,2.35,6.47
9.835,1.55,3.47,3.32,5.04
9.845,1.19,1.55,4.07,4.52
9.855,0.78,-0.01,4.97,5.03
9.865,0.57,-1.50,5.30,5.54
9.875,1.31,-2.30,4.64,5.34
9.885,2.09,-2.87,3.88,5.26
9.895,2.17,-3.42,3.38,5.27
9.905,1.90,-3.24,2.42,4.46
9.915,1.17,-2.02,1.15,2.61
9.925,0.18,-1.03,0.57,1.19
9.935,-0.88,-0.65,0.11,1.10
9.945,-1.76,-0.58,0.06,1.85
9.955,-2.42,-0.79,0.64,2.62
9.965,-2.87,-1.20,1.54,3.47
9.975,-3.13,-1.58,2.37,4.24
9.985,-3.29,-1.84,2.72,4.64
9.995,-3.37,-1.91,2.57,4.65
10.005,-3.43,-2.02,2.24,4.57
10.015,-3.30,-2.22,1.79,4.36
10.025,-2.81,-2.49,1.25,3.96
10.035,-2.04,-2.61,0.63,3.37
10.045,-0.91,-2.37,-0.08,2.54
10.055,0.56,-2.03,-0.68,2.21
10.065,2.14,-1.60,-1.60,3.12
10.075,3.79,-1.71,-2.94,5.09
10.085,5.03,-2.12,-3.59,6.54
10.095,5.56,-2.30,-3.14,6.79
10.105,5.86,-2.54,-3.44,7.25
10.115,6.14,-1.90,-4.51,7.85
10.125,5.35,0.76,-4.49,7.03
10.135,3.76,1.70,-2.52,4.84
10.145,2.70,0.79,-1.48,3.18
10.155,1.83,0.67,-2.44,3.12
10.165,1.10,1.60,-2.02,2.80
10.175,0.51,3.12,0.42,3.19
10.185,-0.31,4.12,2.65,4.91
10.195,-1.70,4.74,3.49,6.13
10.205,-2.72,5.10,3.30,6.66
10.215,-3.03,5.36,3.66,7.17
10.225,-3.16,5.03,3.28,6.79
10.235,-3.09,4.38,2.07,5.74
10.245,-2.74,3.83,1.43,4.92
10.255,-2.20,3.41,1.09,4.20
10.265,-1.71,3.23,0.88,3.76
10.275,-1.81,3.25,1.10,3.88
10.285,-2.32,3.47,1.32,4.38
10.295,-2.74,3.67,1.56,4.84
10.305,-3.17,3.84,1.69,5.25
10.315,-3.57,3.27,1.69,5.13
10.324,-3.93,1.69,1.28,4.46
10.335,-3.59,0.40,-0.87,3.72
10.344,-2.80,-1.09,-1.98,3.60
10.355,-1.50,-1.74,-0.80,2.43
10.365,-0.37,-1.21,0.29,1.30
10.375,-0.08,-1.02,0.80,1.30
10.385,-0.34,-1.24,0.87,1.55
10.394,-0.74,-1.42,0.41,1.65
10.404,-0.96,-1.58,-0.01,1.85
10.415,-0.67,-1.58,-0.44,1.77
10.425,0.05,-1.58,-0.83,1.79
10.434,0.83,-1.58,-1.05,2.07
10.444,1.57,-1.74,-1.19,2.63
10.454,2.13,-2.03,-1.02,3.11
10.465,2.42,-2.12,-0.57,3.27
10.474,2.45,-1.95,-0.33,3.15
10.485,2.29,-1.62,-0.44,2.84
10.494,2.03,-1.24,-0.86,2.53
10.504,1.78,-0.97,-1.44,2.49
10.514,1.47,-0.85,-2.01,2.63
10.524,0.90,-0.90,-2.60,2.90
10.534,0.20,-1.10,-3.11,3.30
10.544,-0.46,-1.39,-3.34,3.65
10.554,-0.92,-1.81,-3.41,3.97
10.565,-1.05,-2.61,-2.99,4.11
10.574,-0.98,-3.99,-1.82,4.49
10.584,-0.50,-5.18,-0.78,5.26
10.594,-0.04,-5.91,-0.52,5.94
10.604,0.06,-5.52,-1.13,5.63
10.614,-0.54,-3.89,-2.57,4.70
10.624,-2.01,-1.59,-4.17,4.89
10.634,-3.32,0.79,-5.73,6.67
10.644,-3.73,2.41,-6.09,7.53
10.654,-2.65,2.22,-5.01,6.09
10.664,-0.66,0.43,-4.13,4.20
10.674,1.71,-1.26,-4.00,4.53
10.684,3.86,-2.35,-3.98,6.02
10.694,4.91,-2.90,-3.72,6.81
10.704,4.92,-3.06,-3.20,6.62
10.714,4.11,-2.58,-1.72,5.15
10.724,2.79,-1.48,0.32,3.17
10.734,1.34,-0.13,2.09,2.48
10.744,0.04,2.34,1.57,2.82
10.754,-1.17,5.86,-0.48,6.00
10.764,-1.78,9.22,-2.36,9.69
10.774,-1.76,11.60,-3.57,12.26
10.784,-1.16,12.64,-3.44,13.15
10.794,0.37,11.76,-2.30,11.98
10.804,1.55,8.63,0.15,8.77
10.814,1.48,5.61,2.93,6.50
10.824,0.88,3.02,4.60,5.57
10.834,0.25,0.97,5.28,5.38
10.844,-0.35,-0.61,5.36,5.40
10.854,-0.47,-2.08,5.13,5.56
10.864,0.46,-2.64,4.24,5.02
10.874,1.00,-2.99,3.61,4.79
10.884,0.80,-2.85,3.01,4.22
10.894,0.47,-1.97,2.01,2.85
10.904,0.14,-1.09,1.26,1.67
10.914,-0.45,-0.79,0.92,1.29
10.924,-1.18,-0.67,0.62,1.49
10.934,-1.75,-0.70,0.68,2.00
10.944,-2.08,-1.05,1.40,2.72
10.954,-2.27,-1.51,2.31,3.57
10.964,-2.40,-1.89,2.99,4.28
10.973,-2.57,-2.02,3.17,4.55
10.984,-2.84,-1.89,2.82,4.43
10.994,-3.05,-1.99,2.46,4.39
11.004,-2.92,-2.33,2.02,4.24
11.014,-2.46,-2.53,1.56,3.86
11.024,-1.66,-2.53,0.82,3.14
11.034,-0.57,-2.29,-0.04,2.36
11.044,0.82,-1.84,-0.75,2.14
11.053,2.59,-1.92,-1.96,3.77
11.063,4.36,-2.63,-3.53,6.19
11.074,5.59,-3.17,-3.76,7.45
11.083,6.06,-3.61,-3.33,7.81
11.094,6.35,-3.85,-3.73,8.31
11.103,6.37,-2.10,-4.27,7.95
11.113,4.73,1.59,-3.36,6.02
11.123,2.86,2.22,-1.53,3.93
11.133,1.89,1.85,-2.31,3.52
11.143,1.41,3.35,-2.42,4.36
11.153,1.57,4.95,-0.02,5.19
11.163,1.48,5.83,1.89,6.30
11.173,0.51,6.43,2.43,6.89
11.183,-1.02,6.48,2.63,7.07
11.193,-2.83,5.15,2.93,6.57
11.203,-4.14,2.91,3.05,5.90
11.213,-4.43,1.77,2.82,5.55
11.223,-4.13,2.37,3.13,5.70
11.233,-3.18,3.89,3.11,5.90
11.243,-2.44,4.83,2.32,5.89
11.253,-2.00,5.47,0.74,5.87
11.264,-2.31,5.59,-0.08,6.05
11.273,-2.91,4.80,0.20,5.61
11.283,-3.58,3.78,1.32,5.37
11.293,-3.79,2.66,1.41,4.84
11.303,-3.89,0.93,0.65,4.05
11.313,-3.14,-0.80,-0.13,3.24
11.323,-2.37,-2.12,-1.54,3.53
11.333,-1.43,-2.40,-1.42,3.14
11.343,-1.02,-1.49,0.09,1.80
11.353,-1.12,-0.59,0.93,1.57
11.363,-1.37,-0.71,0.61,1.67
11.373,-1.39,-1.16,0.14,1.82
11.383,-1.16,-1.43,-0.03,1.84
11.393,-0.77,-1.65,-0.13,1.83
11.403,-0.10,-1.61,-0.47,1.68
11.413,0.66,-1.53,-0.74,1.82
11.423,1.24,-1.49,-0.72,2.07
11.433,1.60,-1.57,-0.66,2.34
11.443,1.75,-1.67,-0.63,2.50
11.453,1.79,-1.61,-0.43,2.45
11.463,1.71,-1.48,-0.25,2.28
11.473,1.58,-1.27,-0.38,2.07
11.483,1.50,-1.08,-0.81,2.02
11.493,1.41,-0.98,-1.42,2.23
11.503,1.16,-1.01,-2.12,2.62
11.513,0.71,-1.19,-2.65,2.99
11.523,0.12,-1.44,-3.04,3.37
11.533,-0.32,-1.63,-3.32,3.71
11.543,-0.49,-1.99,-3.22,3.81
11.553,-0.62,-2.79,-2.38,3.72
11.563,-0.54,-3.89,-1.35,4.16
11.573,-0.09,-4.99,-0.93,5.08
11.583,0.34,-5.63,-1.04,5.73
11.593,0.43,-5.33,-1.48,5.55
11.603,-0.15,-3.79,-2.40,4.49
11.613,-1.65,-1.53,-3.49,4.15
11.623,-3.09,0.92,-4.90,5.87
11.633,-3.63,2.71,-5.94,7.47
11.643,-2.97,2.36,-5.37,6.57
11.652,-1.70,0.46,-4.41,4.75
11.663,-0.03,-1.19,-3.89,4.07
11.673,2.08,-2.56,-3.58,4.87
11.683,3.74,-3.23,-2.99,5.78
11.693,4.49,-3.20,-2.56,6.08
11.703,4.40,-2.69,-2.07,5.56
11.713,3.60,-1.69,-0.74,4.05
11.723,2.34,-0.54,0.60,2.47
11.732,0.90,1.04,1.60,2.11
11.743,-0.40,3.66,1.05,3.83
11.753,-1.38,6.93,-0.47,7.08
11.763,-1.55,9.50,-2.80,10.02
11.772,-1.41,11.05,-3.66,11.73
11.784,-0.51,11.87,-2.99,12.26
11.792,1.03,10.52,-1.40,10.67
11.802,2.10,7.48,0.87,7.81
11.812,2.28,4.67,2.46,5.75
11.822,2.02,2.44,3.84,4.98
11.832,1.25,0.63,5.01,5.20
11.842,0.45,-0.96,6.27,6.36
11.852,0.79,-1.80,5.99,6.31
11.863,1.46,-2.50,4.86,5.65
11.873,1.31,-2.85,4.11,5.17
11.882,0.67,-2.37,2.89,3.80
11.892,0.10,-1.32,1.48,1.98
11.902,-0.82,-0.50,0.80,1.25
11.912,-1.65,-0.13,0.06,1.66
11.922,-2.40,-0.22,-0.26,2.43
11.932,-2.99,-0.59,0.17,3.06
11.942,-3.31,-1.19,1.22,3.72
11.952,-3.31,-1.69,2.48,4.46
11.962,-3.14,-1.86,3.17,4.83
11.972,-2.94,-1.73,3.16,4.65
11.982,-2.79,-1.79,2.73,4.30
11.992,-2.58,-2.02,2.17,3.93
12.002,-2.12,-2.19,1.67,3.48
12.012,-1.52,-2.26,1.14,2.95
12.022,-0.75,-2.13,0.56,2.33
12.032,0.45,-1.58,0.24,1.66
12.042,2.06,-1.38,-0.63,2.55
12.052,3.57,-2.29,-2.31,4.83
12.062,4.62,-3.40,-3.36,6.65
12.072,4.94,-4.00,-3.04,7.05
12.082,4.71,-4.63,-3.36,7.41
12.092,4.58,-3.91,-4.85,7.73
12.102,3.68,-0.03,-5.35,6.49
12.112,2.11,2.17,-3.05,4.29
12.122,1.18,1.24,-1.10,2.04
12.132,0.76,1.23,-2.06,2.52
12.142,0.73,2.02,-2.28,3.13
12.152,0.70,3.17,-0.31,3.26
12.162,0.37,3.91,1.67,4.26
12.172,-0.83,4.33,2.18,4.92
12.182,-2.13,4.60,1.67,5.34
12.192,-2.53,4.99,1.92,5.92
12.202,-2.50,5.07,2.55,6.20
12.212,-2.12,4.83,2.44,5.81
12.222,-1.60,3.90,2.16,4.74
12.232,-1.43,2.64,1.83,3.51
12.242,-1.41,2.21,1.78,3.16
12.252,-1.40,2.20,1.76,3.15
12.262,-1.70,2.17,1.34,3.06
12.272,-2.00,2.23,0.83,3.11
12.282,-2.41,2.09,0.82,3.29
12.291,-2.93,2.32,1.09,3.90
12.302,-3.51,2.81,1.38,4.70
12.312,-3.74,2.58,0.69,4.60
12.322,-3.86,1.21,-0.75,4.11
12.332,-3.17,0.27,-1.14,3.38
12.342,-2.07,0.18,-0.04,2.08
12.352,-1.39,0.16,0.90,1.66
12.362,-1.18,-0.00,1.04,1.57
12.372,-1.38,-0.38,0.43,1.50
12.381,-1.52,-0.86,-0.20,1.75
12.392,-1.49,-1.18,-0.44,1.95
12.401,-1.09,-1.26,-0.58,1.77
12.412,-0.40,-1.35,-0.73,1.58
12.422,0.18,-1.38,-0.84,1.62
12.431,0.72,-1.48,-0.58,1.75
12.441,1.20,-1.74,-0.35,2.14
12.451,1.56,-1.96,-0.09,2.50
12.462,1.70,-2.05,0.18,2.67
12.471,1.51,-1.74,0.02,2.30
12.481,1.14,-1.28,-0.40,1.76
12.492,0.76,-0.77,-1.06,1.51
12.501,0.51,-0.41,-1.75,1.87
12.511,0.29,-0.33,-2.48,2.52
12.521,-0.05,-0.60,-3.17,3.23
12.531,-0.39,-1.10,-3.70,3.87
12.541,-0.68,-1.84,-3.97,4.43
12.551,-0.87,-2.75,-3.97,4.90
12.562,-1.00,-3.59,-3.37,5.02
12.571,-0.96,-4.56,-2.48,5.28
12.581,-0.71,-5.45,-1.92,5.82
12.591,-0.59,-5.73,-1.70,6.01
12.601,-0.78,-4.84,-2.04,5.31
12.611,-1.34,-2.94,-2.61,4.15
12.621,-2.50,-0.57,-3.68,4.49
12.631,-3.65,1.56,-4.69,6.15
12.641,-3.66,2.80,-4.48,6.43
12.651,-2.13,2.58,-3.80,5.07
12.661,0.30,1.09,-3.82,3.98
12.671,2.54,-0.48,-4.01,4.77
12.681,4.04,-1.59,-4.08,5.96
12.691,4.60,-2.26,-3.60,6.26
12.701,4.26,-2.59,-2.40,5.53
12.711,3.27,-2.23,-0.30,3.96
12.721,1.86,-1.48,1.66,2.90
12.731,0.68,-0.35,2.51,2.62
12.741,-0.44,2.00,1.57,2.58
12.751,-1.17,5.24,-0.34,5.38
12.761,-0.87,7.74,-2.47,8.17
12.771,-0.17,9.61,-3.10,10.10
12.781,1.10,11.17,-2.74,11.55
12.791,2.89,11.52,-1.82,12.01
12.801,3.66,9.17,0.43,9.88
12.811,3.24,5.67,2.99,7.18
12.821,2.47,2.58,4.74,5.93
12.831,1.31,0.19,5.89,6.03
12.841,0.40,-1.68,6.57,6.79
12.851,0.50,-2.61,6.01,6.58
12.861,1.13,-2.96,4.72,5.69
12.871,1.09,-3.16,3.66,4.96
12.881,0.62,-2.88,2.41,3.80
12.891,0.10,-2.10,0.91,2.29
12.901,-0.61,-1.32,0.03,1.45
12.911,-1.44,-0.90,-0.59,1.80
12.921,-2.28,-0.81,-0.78,2.54
12.931,-2.99,-0.98,-0.13,3.15
12.941,-3.39,-1.39,1.09,3.83
12.951,-3.30,-1.64,2.20,4.29
12.961,-3.17,-1.70,2.94,4.65
12.971,-3.09,-1.45,3.03,4.56
12.981,-3.13,-1.52,2.77,4.45
12.991,-3.16,-1.72,2.58,4.42
13.001,-2.84,-1.97,2.22,4.10
13.011,-2.23,-2.09,1.60,3.45
13.020,-1.37,-2.00,0.72,2.53
13.030,-0.17,-1.64,-0.01,1.65
13.041,1.47,-1.09,-0.58,1.92
13.051,3.39,-0.83,-1.99,4.02
13.061,5.33,-1.58,-3.75,6.71
13.071,6.45,-2.43,-4.00,7.97
13.081,6.81,-3.13,-3.70,8.36
13.091,7.04,-3.49,-4.61,9.11
13.100,6.34,-1.12,-5.26,8.31
13.110,4.04,1.78,-3.49,5.63
13.120,2.11,1.55,-2.49,3.62
13.130,1.33,1.36,-3.01,3.57
13.140,1.03,1.62,-1.03,2.18
13.150,0.58,2.41,1.32,2.80
13.161,-0.25,3.28,2.32,4.03
13.170,-1.87,3.62,2.32,4.69
13.180,-3.26,3.48,2.36,5.32
13.190,-3.55,3.92,3.01,6.08
13.200,-3.09,4.84,2.73,6.36
13.210,-2.51,5.61,2.24,6.54
13.220,-1.95,5.35,1.80,5.97
13.230,-1.46,4.17,1.20,4.57
13.240,-1.16,3.38,1.25,3.79
13.250,-1.37,3.20,1.30,3.72
13.260,-2.07,3.14,1.37,4.01
13.270,-2.63,2.96,1.51,4.24
13.280,-3.19,3.07,1.98,4.85
13.290,-3.69,3.22,1.92,5.26
13.300,-4.02,2.52,1.23,4.90
13.310,-4.55,1.24,0.64,4.76
13.320,-4.78,0.09,-1.31,4.96
13.330,-3.68,-0.27,-1.16,3.87
13.340,-2.26,-0.16,0.24,2.28
13.350,-1.27,-0.13,0.86,1.54
13.360,-0.92,-0.62,0.83,1.39
13.370,-0.88,-1.19,0.45,1.55
13.380,-0.88,-1.55,0.05,1.79
13.390,-0.72,-1.68,-0.18,1.84
13.400,-0.22,-1.56,-0.39,1.63
13.410,0.32,-1.48,-0.72,1.68
13.420,0.83,-1.34,-0.91,1.82
13.430,1.37,-1.29,-0.65,1.99
13.440,1.82,-1.59,-0.55,2.47
13.450,2.02,-1.81,-0.36,2.74
13.460,1.94,-1.80,-0.31,2.66
13.470,1.66,-1.70,-0.58,2.45
13.480,1.39,-1.53,-1.02,2.31
13.490,1.28,-1.32,-1.56,2.41
13.500,1.15,-1.21,-2.06,2.65
13.510,0.78,-1.11,-2.61,2.94
13.520,0.26,-1.13,-3.10,3.31
13.530,-0.25,-1.28,-3.44,3.68
13.540,-0.71,-1.62,-3.44,3.86
13.550,-1.13,-2.21,-3.00,3.89
13.560,-1.32,-3.25,-2.25,4.17
13.570,-1.05,-4.66,-1.68,5.07
13.580,-0.62,-5.73,-1.41,5.94
13.590,-0.40,-5.50,-1.60,5.74
13.600,-0.49,-4.05,-2.44,4.75
13.610,-1.35,-1.81,-3.19,3.90
13.620,-2.80,0.74,-4.03,4.96
13.630,-3.47,2.79,-5.01,6.71
13.640,-2.89,3.42,-4.75,6.53
13.650,-1.64,2.09,-3.85,4.67
13.660,0.12,-0.09,-3.59,3.59
13.670,2.14,-2.00,-3.19,4.33
13.680,3.80,-3.07,-2.79,5.63
13.689,4.57,-3.43,-2.61,6.29
13.700,4.49,-3.37,-2.22,6.04
13.710,3.76,-2.70,-1.06,4.75
13.720,2.56,-1.61,0.49,3.06
13.730,1.22,-0.32,1.55,1.99
13.739,-0.02,1.69,1.66,2.36
13.749,-1.07,4.78,-0.49,4.92
13.760,-1.39,7.76,-2.50,8.27
13.769,-0.92,9.64,-3.58,10.32
13.780,-0.20,10.26,-3.10,10.72
13.789,1.23,9.77,-1.90,10.03
13.799,2.18,8.03,0.29,8.32
13.809,2.16,5.64,2.68,6.61
13.819,1.87,3.25,3.86,5.38
13.829,1.37,1.30,4.43,4.82
13.839,0.59,-0.33,5.06,5.11
13.849,0.13,-1.71,5.35,5.62
13.860,0.69,-2.28,4.81,5.36
13.869,1.48,-2.66,3.66,4.76
13.879,1.48,-2.66,2.90,4.20
13.889,1.01,-2.18,1.96,3.10
13.899,0.56,-1.28,0.92,1.68
13.909,-0.02,-0.55,0.32,0.63
13.919,-0.89,-0.42,-0.04,0.99
13.929,-1.83,-0.48,0.00,1.89
13.939,-2.63,-0.65,0.54,2.76
13.949,-3.18,-1.02,1.51,3.66
13.959,-3.45,-1.37,2.56,4.51
13.969,-3.55,-1.52,3.06,4.93
13.979,-3.54,-1.58,2.87,4.83
13.989,-3.49,-1.68,2.47,4.59
13.999,-3.33,-1.89,2.07,4.35
14.009,-2.92,-2.05,1.54,3.88
14.019,-2.28,-2.26,0.98,3.35
14.029,-1.44,-2.22,0.28,2.66
14.039,-0.33,-2.03,-0.30,2.08
14.049,1.21,-1.67,-0.91,2.25
14.059,2.94,-1.78,-2.25,4.11
14.069,4.53,-2.46,-3.48,6.22
14.079,5.54,-2.90,-3.61,7.23
14.089,6.23,-2.90,-3.92,7.91
14.099,6.76,-2.41,-4.97,8.73
14.109,6.18,0.14,-5.04,7.98
14.119,4.25,2.23,-2.93,5.63
14.129,2.78,1.57,-1.50,3.53
14.139,1.83,1.11,-2.19,3.06
14.149,0.96,1.64,-1.93,2.72
14.159,0.39,2.83,0.14,2.86
14.169,-0.27,3.79,1.78,4.19
14.179,-1.57,4.13,2.43,5.05
14.189,-2.69,4.22,2.52,5.60
14.199,-3.04,4.67,3.13,6.39
14.209,-3.02,4.87,3.09,6.51
14.219,-2.81,4.85,2.56,6.16
14.229,-2.49,4.50,2.05,5.54
14.239,-2.07,3.94,1.53,4.71
14.249,-1.66,3.58,1.42,4.20
14.259,-1.69,3.24,1.29,3.88
14.268,-2.35,2.91,1.37,3.98
14.279,-2.92,2.75,1.55,4.29
14.289,-3.33,3.37,2.05,5.17
14.298,-3.53,3.85,1.66,5.48
14.309,-3.82,3.10,0.54,4.95
14.319,-3.79,1.06,-0.41,3.96
14.329,-3.20,-0.44,-1.08,3.40
14.339,-1.89,-0.49,-1.03,2.21
14.349,-0.97,-0.68,-0.03,1.19
14.359,-0.58,-0.65,0.55,1.03
14.369,-0.77,-0.82,0.46,1.22
14.379,-1.07,-1.28,0.22,1.69
14.389,-1.06,-1.62,0.07,1.94
14.399,-0.71,-1.77,-0.10,1.91
14.409,-0.07,-1.67,-0.32,1.70
14.418,0.71,-1.61,-0.55,1.84
14.429,1.39,-1.52,-0.60,2.15
14.438,1.77,-1.37,-0.55,2.31
14.449,2.04,-1.51,-0.25,2.55
14.458,2.09,-1.64,-0.25,2.67
14.468,1.95,-1.58,-0.22,2.52
14.478,1.66,-1.28,-0.51,2.15
14.488,1.38,-0.99,-1.00,1.97
14.498,1.22,-0.82,-1.45,2.07
14.508,1.09,-0.80,-1.84,2.28
14.518,0.81,-1.09,-2.34,2.71
14.528,0.29,-1.57,-3.05,3.44
14.538,-0.20,-2.05,-3.78,4.30
14.548,-0.48,-2.49,-4.13,4.85
14.559,-0.61,-2.98,-3.79,4.86
14.568,-0.75,-3.73,-2.77,4.71
14.578,-0.63,-4.53,-2.06,5.02
14.588,-0.23,-5.28,-1.88,5.61
14.598,-0.05,-5.31,-1.84,5.62
14.608,-0.27,-4.13,-2.54,4.86
14.618,-1.42,-1.89,-3.29,4.05
14.628,-3.08,0.57,-3.84,4.95
14.638,-3.83,2.54,-4.51,6.44
14.648,-3.27,3.30,-3.97,6.11
14.658,-1.60,2.23,-2.96,4.04
14.668,0.79,0.20,-2.95,3.06
14.678,3.16,-1.55,-3.12,4.71
14.688,4.84,-2.51,-3.26,6.35
14.698,5.44,-2.97,-3.39,7.07
14.708,5.04,-2.93,-2.72,6.44
14.718,3.90,-2.29,-0.92,4.61
14.728,2.35,-1.25,1.02,2.85
14.738,0.74,-0.20,2.31,2.44
14.748,-0.62,1.65,1.72,2.46
14.758,-1.74,4.73,-0.57,5.07
14.768,-2.51,7.79,-2.10,8.44
14.778,-1.98,9.84,-3.15,10.52
14.788,-0.74,11.03,-3.22,11.51
14.798,1.21,11.13,-2.57,11.48
14.808,2.55,9.49,-0.35,9.84
14.818,2.54,6.49,2.76,7.50
14.828,1.99,3.38,4.73,6.15
14.838,1.40,0.81,5.60,5.83
14.848,0.77,-1.29,6.17,6.35
14.858,0.95,-2.63,5.89,6.52
14.868,1.81,-3.37,4.72,6.08
14.878,2.06,-3.75,4.07,5.90
14.888,1.69,-3.17,3.11,4.75
14.898,1.14,-2.05,1.99,3.08
14.908,0.24,-1.25,1.28,1.80
14.918,-0.72,-0.68,0.51,1.12
14.928,-1.67,-0.40,0.13,1.72
14.938,-2.36,-0.42,0.31,2.42
14.948,-2.76,-0.79,1.09,3.07
14.958,-2.93,-1.27,2.20,3.88
14.967,-3.02,-1.66,3.00,4.57
14.978,-3.03,-1.82,3.13,4.72
14.987,-3.06,-1.72,2.90,4.56
14.998,-2.99,-1.75,2.58,4.32
15.008,-2.60,-1.90,2.14,3.87
15.018,-1.93,-2.08,1.60,3.25
15.028,-1.07,-2.02,0.79,2.41
15.038,0.09,-1.81,-0.11,1.81
15.048,1.58,-1.98,-1.13,2.78
15.058,3.11,-2.70,-2.71,4.93
15.068,4.54,-3.32,-3.79,6.79
15.078,5.61,-3.24,-3.73,7.47
15.088,6.11,-3.30,-4.08,8.05
15.097,6.11,-2.97,-4.45,8.12
15.108,5.23,-0.30,-3.75,6.44
15.117,3.52,2.30,-2.55,4.92
15.127,2.40,2.13,-2.06,3.81
15.137,1.95,1.33,-2.02,3.11
15.147,1.91,1.88,-1.34,3.00
15.157,1.98,3.00,0.07,3.59
15.168,1.31,3.82,0.80,4.11
15.177,-0.31,4.39,0.94,4.50
15.187,-1.79,4.60,1.98,5.32
15.197,-2.53,4.96,3.50,6.58
15.207,-2.69,5.14,3.52,6.79
15.217,-2.48,5.04,2.36,6.10
15.227,-2.44,4.44,1.25,5.22
15.237,-2.70,3.87,1.76,5.04
15.247,-2.39,4.16,2.50,5.41
15.257,-1.73,4.52,1.84,5.18
15.267,-1.88,3.66,1.15,4.27
15.277,-2.50,1.94,0.60,3.22
15.287,-2.98,1.12,0.37,3.20
15.297,-3.56,1.51,0.76,3.94
15.307,-4.12,2.16,1.38,4.86
15.317,-4.46,2.26,0.95,5.09
15.327,-3.99,1.44,0.26,4.25
15.337,-3.07,0.39,-0.76,3.19
15.347,-1.85,0.18,-0.68,1.98
15.357,-0.91,-0.08,0.42,1.01
15.367,-0.63,-0.31,1.21,1.40
15.377,-0.83,-0.90,0.82,1.48
15.387,-0.98,-1.80,0.06,2.05
15.397,-0.74,-2.38,-0.49,2.54
15.407,-0.33,-2.55,-0.70,2.66
15.417,0.26,-2.35,-0.66,2.46
15.427,0.87,-1.90,-0.48,2.15
15.437,1.27,-1.37,-0.18,1.88
15.447,1.37,-1.09,0.02,1.75
15.457,1.28,-0.99,0.05,1.62
15.467,1.11,-1.01,-0.17,1.51
15.477,0.89,-1.04,-0.55,1.48
15.487,0.77,-1.00,-0.92,1.56
15.497,0.73,-0.86,-1.26,1.69
15.507,0.79,-0.76,-1.61,1.94
15.517,0.86,-0.70,-2.14,2.40
15.527,0.71,-0.71,-2.71,2.89
15.537,0.38,-0.86,-3.22,3.35
15.547,0.02,-1.10,-3.56,3.73
15.557,-0.46,-1.43,-3.55,3.85
15.567,-0.90,-1.97,-3.07,3.76
15.577,-1.07,-2.98,-2.24,3.88
15.587,-0.81,-4.51,-1.30,4.77
15.596,-0.32,-5.75,-0.60,5.79
15.607,0.25,-6.14,-0.80,6.20
15.616,0.18,-5.29,-1.64,5.54
15.627,-1.06,-3.19,-2.91,4.45
15.636,-2.66,-0.71,-4.57,5.33
15.647,-3.58,1.44,-6.24,7.34
15.657,-3.64,2.42,-6.10,7.50
15.666,-2.76,1.67,-4.80,5.78
15.677,-0.96,-0.07,-4.26,4.37
15.687,1.37,-1.86,-3.41,4.12
15.696,3.37,-2.93,-2.60,5.17
15.707,4.46,-3.29,-2.69,6.16
15.717,4.44,-3.26,-2.50,6.05
15.727,3.69,-2.67,-1.12,4.69
15.736,2.50,-1.61,0.66,3.05
15.746,1.05,-0.22,2.08,2.34
15.757,-0.36,2.45,2.21,3.32
15.766,-1.41,6.26,0.77,6.46
15.777,-1.65,9.09,-2.15,9.49
15.786,-1.71,10.56,-3.36,11.22
15.797,-1.03,11.28,-2.72,11.65
15.806,0.49,10.54,-1.28,10.63
15.816,1.88,8.09,0.61,8.33
15.826,2.19,5.40,2.25,6.24
15.836,1.87,2.95,3.57,5.00
15.847,1.17,0.69,4.85,5.04
15.857,0.43,-1.21,5.85,5.99
15.866,0.58,-2.45,5.54,6.09
15.876,1.43,-3.19,4.29,5.53
15.886,1.57,-3.46,3.91,5.45
15.896,1.26,-2.88,2.81,4.21
15.906,1.01,-1.70,1.17,2.30
15.916,0.22,-1.10,0.55,1.25
15.926,-0.76,-0.70,0.01,1.03
15.936,-1.65,-0.58,-0.57,1.84
15.946,-2.50,-0.76,-0.28,2.63
15.956,-3.19,-1.03,0.79,3.45
15.966,-3.57,-1.32,2.02,4.31
15.976,-3.68,-1.49,2.82,4.87
15.986,-3.65,-1.41,2.85,4.85
15.996,-3.59,-1.41,2.51,4.61
16.006,-3.54,-1.58,2.07,4.40
16.016,-3.27,-1.75,1.50,4.00
16.026,-2.65,-2.08,0.85,3.48
16.036,-1.69,-2.13,-0.03,2.72
16.046,-0.44,-1.97,-0.65,2.12
16.056,1.09,-1.79,-0.91,2.29
16.066,2.95,-1.66,-1.95,3.91
16.076,4.51,-2.25,-3.25,6.00
16.086,5.47,-3.08,-3.54,7.21
16.096,5.87,-3.68,-3.87,7.94
16.106,6.24,-3.46,-4.94,8.68
16.116,5.68,-0.93,-5.21,7.76
16.126,3.67,0.97,-3.78,5.35
16.136,1.90,0.62,-2.58,3.26
16.146,1.00,0.95,-2.61,2.95
16.156,0.69,2.38,-1.42,2.85
16.166,0.40,3.91,0.95,4.04
16.176,-0.27,4.96,2.47,5.55
16.186,-1.47,5.58,3.22,6.61
16.196,-2.35,6.03,3.66,7.44
16.206,-2.77,6.14,3.53,7.61
16.216,-2.98,5.39,2.49,6.64
16.226,-3.21,4.10,1.63,5.45
16.236,-3.26,3.33,1.64,4.94
16.246,-2.92,3.32,1.71,4.74
16.256,-2.31,3.80,1.53,4.70
16.266,-1.93,4.16,0.71,4.64
16.276,-2.27,3.93,0.46,4.56
16.286,-2.91,3.54,1.14,4.72
16.296,-3.35,3.69,1.83,5.31
16.306,-3.60,3.22,1.27,5.00
16.315,-3.83,1.72,-0.55,4.23
16.326,-3.05,-0.21,-1.51,3.41
16.336,-1.98,-0.94,-0.44,2.23
16.346,-0.81,-1.75,-0.28,1.95
16.356,-0.15,-1.73,0.36,1.77
16.366,-0.23,-1.12,0.67,1.33
16.376,-0.72,-0.89,0.59,1.29
16.386,-1.14,-1.04,0.62,1.67
16.396,-1.16,-1.15,0.41,1.68
16.406,-0.61,-1.22,0.08,1.36
16.416,0.12,-1.37,-0.15,1.38
16.426,0.74,-1.43,-0.36,1.65
16.435,1.20,-1.53,-0.51,2.01
16.446,1.52,-1.74,-0.55,2.37
16.456,1.66,-1.83,-0.51,2.52
16.466,1.70,-1.81,-0.43,2.52
16.475,1.62,-1.63,-0.66,2.39
16.485,1.33,-1.43,-0.62,2.05
16.495,0.98,-1.19,-0.91,1.80
16.505,0.81,-0.82,-1.81,2.15
16.515,0.64,-0.57,-2.58,2.72
16.525,0.27,-0.51,-3.21,3.26
16.535,-0.16,-0.65,-3.61,3.68
16.545,-0.61,-0.95,-3.72,3.89
16.555,-1.12,-1.51,-3.39,3.87
16.565,-1.71,-2.76,-2.37,4.02
16.575,-1.69,-4.47,-1.56,5.03
16.585,-0.92,-6.08,-1.17,6.26
16.595,-0.32,-6.76,-1.16,6.86
16.605,-0.34,-5.79,-2.00,6.13
16.615,-1.25,-3.26,-3.48,4.93
16.625,-2.65,-0.35,-4.85,5.54
16.635,-3.66,1.90,-5.75,7.07
16.645,-3.60,2.66,-5.03,6.73
16.655,-2.28,2.07,-4.04,5.08
16.665,-0.12,0.31,-3.62,3.64
16.675,1.97,-1.71,-3.16,4.10
16.685,3.52,-2.63,-3.03,5.34
16.695,4.34,-2.66,-3.08,5.95
16.705,4.32,-2.56,-2.51,5.62
16.715,3.66,-2.17,-0.75,4.32
16.725,2.61,-1.40,1.20,3.20
16.735,1.45,-0.28,2.36,2.78
16.745,0.26,2.12,1.86,2.83
16.755,-0.84,5.64,-0.24,5.70
16.765,-1.17,8.39,-2.38,8.80
16.775,-1.00,9.65,-3.12,10.19
16.785,-0.21,10.21,-2.67,10.56
16.795,1.22,10.34,-1.60,10.53
16.805,2.53,8.94,-0.08,9.29
16.815,2.69,6.45,1.64,7.18
16.825,1.99,3.94,3.39,5.57
16.835,1.00,1.85,5.24,5.64
16.845,0.27,0.09,6.31,6.32
16.855,0.14,-1.73,5.96,6.21
16.865,1.07,-2.73,4.72,5.55
16.875,1.77,-3.31,4.13,5.58
16.885,1.83,-3.45,3.51,5.25
16.895,1.38,-2.42,1.99,3.43
16.905,0.65,-1.07,0.82,1.50
16.915,-0.25,-0.56,0.37,0.71
16.925,-1.20,-0.45,-0.07,1.29
16.935,-2.15,-0.58,-0.07,2.22
16.945,-2.91,-0.83,0.67,3.10
16.955,-3.35,-1.12,1.78,3.96
16.965,-3.44,-1.33,2.65,4.54
16.975,-3.35,-1.42,3.02,4.73
16.985,-3.22,-1.43,2.89,4.56
16.995,-3.23,-1.52,2.54,4.38
17.004,-3.07,-1.74,2.06,4.08
17.015,-2.54,-2.07,1.39,3.56
17.024,-1.75,-2.31,0.56,2.95
17.035,-0.75,-2.24,-0.29,2.38
17.044,0.47,-2.15,-0.83,2.36
17.055,1.97,-2.01,-1.76,3.32
17.065,3.54,-2.57,-3.16,5.39
17.075,4.64,-3.45,-3.76,6.90
17.085,4.99,-3.94,-3.50,7.26
17.095,5.31,-3.86,-3.84,7.60
17.105,5.69,-2.37,-4.26,7.49
17.115,4.84,0.24,-4.05,6.32
17.124,3.25,0.46,-2.39,4.06
17.134,2.17,0.11,-1.47,2.62
17.144,1.42,0.89,-1.20,2.06
17.155,1.01,2.06,0.36,2.32
17.164,0.63,3.40,2.08,4.03
17.174,-0.47,4.48,2.85,5.33
17.184,-1.61,5.32,3.04,6.33
17.194,-1.87,6.52,3.31,7.55
17.204,-1.56,7.86,3.20,8.63
17.214,-1.32,8.16,2.08,8.52
17.224,-1.36,7.11,0.86,7.29
17.234,-1.55,5.45,1.38,5.83
17.244,-1.50,4.31,2.63,5.27
17.254,-1.66,3.42,2.38,4.48
17.264,-2.51,2.51,1.30,3.78
17.274,-3.35,1.88,0.84,3.93
17.284,-4.31,2.34,1.44,5.11
17.294,-4.71,3.61,1.54,6.13
17.304,-4.80,3.73,0.89,6.15
17.314,-5.22,2.36,-0.10,5.73
17.324,-4.53,1.35,-1.23,4.89
17.334,-2.71,-0.05,-0.53,2.76
17.344,-1.43,-0.62,0.20,1.58
17.354,-0.86,-0.82,0.10,1.19
17.364,-0.88,-1.20,-0.17,1.49
17.374,-0.99,-1.44,-0.26,1.77
17.384,-1.08,-1.57,-0.19,1.92
17.394,-0.79,-1.52,-0.26,1.74
17.404,-0.15,-1.53,-0.41,1.59
17.414,0.51,-1.68,-0.63,1.87
17.424,1.15,-1.88,-0.75,2.33
17.434,1.67,-2.20,-0.61,2.83
17.444,2.02,-2.41,-0.45,3.17
17.454,2.26,-2.43,-0.25,3.33
17.464,2.33,-2.05,-0.25,3.12
17.474,2.22,-1.57,-0.34,2.74
17.484,2.12,-1.05,-0.72,2.47
17.494,2.03,-0.72,-1.32,2.53
17.504,1.89,-0.68,-1.92,2.78
17.514,1.51,-0.83,-2.51,3.05
17.524,0.90,-1.12,-3.11,3.43
17.534,0.26,-1.55,-3.62,3.95
17.544,-0.33,-2.13,-3.69,4.27
17.554,-0.75,-2.88,-3.16,4.34
17.564,-0.81,-4.10,-2.23,4.74
17.574,-0.36,-5.30,-1.55,5.53
17.584,-0.16,-5.95,-0.91,6.02
17.594,-0.40,-5.34,-0.81,5.42
17.603,-0.90,-3.79,-1.55,4.20
17.614,-1.98,-1.61,-2.35,3.47
17.624,-3.40,0.72,-3.27,4.78
17.634,-4.14,2.76,-4.71,6.85
17.644,-3.49,3.80,-5.05,7.22
17.653,-2.02,2.83,-3.87,5.21
17.664,-0.21,0.51,-3.41,3.46
17.673,1.96,-1.36,-3.22,4.00
17.684,3.73,-2.52,-2.92,5.37
17.694,4.60,-3.23,-2.84,6.30
17.704,4.48,-3.57,-2.51,6.25
17.714,3.63,-3.21,-1.34,5.03
17.723,2.36,-2.25,0.27,3.27
17.733,1.02,-1.08,1.49,2.10
17.743,-0.25,0.54,2.33,2.41
17.754,-1.27,3.49,1.17,3.89
17.764,-1.79,6.79,-0.85,7.08
17.773,-1.21,8.99,-2.80,9.49
17.784,-0.48,10.38,-3.34,10.91
17.793,0.65,10.79,-2.29,11.05
17.803,1.97,9.76,-0.43,9.96
17.813,2.61,7.17,1.20,7.72
17.823,2.74,4.29,2.59,5.71
17.833,2.31,1.82,3.96,4.93
17.843,1.40,-0.11,6.10,6.26
17.853,1.19,-1.64,6.68,6.98
17.863,1.67,-2.63,5.08,5.96
17.873,1.63,-2.83,4.17,5.29
17.883,1.23,-2.27,3.25,4.15
17.893,0.98,-1.27,1.75,2.38
17.903,0.37,-0.69,0.91,1.20
17.913,-0.45,-0.33,0.33,0.65
17.924,-1.25,-0.13,-0.37,1.31
17.933,-2.04,-0.34,-0.47,2.12
17.943,-2.72,-0.87,0.24,2.86
17.953,-3.15,-1.38,1.33,3.69
17.963,-3.38,-1.71,2.42,4.49
17.973,-3.41,-1.73,2.94,4.82
17.983,-3.37,-1.64,2.80,4.68
17.993,-3.36,-1.74,2.39,4.48
18.003,-3.27,-2.03,1.90,4.30
18.013,-2.90,-2.35,1.34,3.97
18.023,-2.29,-2.51,0.68,3.46
18.033,-1.38,-2.39,-0.16,2.77
18.043,-0.09,-2.16,-0.78,2.29
18.053,1.47,-1.83,-1.62,2.86
18.063,3.26,-1.77,-3.03,4.79
18.073,4.59,-2.23,-3.79,6.35
18.083,5.32,-2.62,-3.44,6.85
18.093,5.92,-2.98,-3.44,7.46
18.103,6.36,-2.68,-3.98,7.97
18.113,5.51,-0.47,-3.70,6.66
18.123,3.46,0.67,-2.56,4.35
18.133,1.99,0.36,-3.33,3.90
18.143,1.53,1.03,-3.76,4.19
18.153,1.65,2.34,-1.03,3.04
18.163,1.56,3.59,2.42,4.60
18.173,0.80,4.76,3.88,6.19
18.183,-0.69,5.61,3.75,6.78
18.193,-1.99,6.00,3.84,7.39
18.203,-2.57,6.02,3.24,7.30
18.213,-2.89,5.20,1.62,6.17
18.223,-3.26,3.84,1.08,5.15
18.233,-3.36,2.69,1.46,4.54
18.243,-3.10,2.02,1.78,4.11
18.253,-2.56,1.56,1.75,3.47
18.263,-2.12,1.64,1.00,2.86
18.273,-2.21,1.87,0.69,2.97
18.283,-2.58,2.43,1.50,3.85
18.293,-2.82,3.59,2.55,5.23
18.303,-2.83,4.16,2.19,5.49
18.313,-2.92,3.13,0.36,4.29
18.323,-2.91,1.12,-0.72,3.20
18.333,-2.28,-0.76,-0.69,2.50
18.342,-1.09,-1.14,-1.08,1.91
18.352,-0.19,-0.69,-0.58,0.92
18.363,-0.35,-0.47,0.30,0.66
18.372,-0.80,0.24,0.84,1.19
18.383,-1.14,0.20,1.03,1.54
18.392,-1.18,-0.45,0.74,1.46
18.403,-0.83,-1.05,0.11,1.34
18.412,-0.24,-1.37,-0.38,1.44
18.422,0.37,-1.37,-0.50,1.50
18.432,0.75,-1.17,-0.35,1.44
18.442,0.87,-0.96,-0.21,1.31
18.452,0.84,-0.95,-0.25,1.29
18.462,0.78,-1.12,-0.38,1.42
18.472,0.78,-1.21,-0.44,1.51
18.482,0.87,-1.26,-0.49,1.60
18.492,0.90,-1.26,-0.61,1.66
18.502,0.84,-1.17,-0.93,1.72
18.512,0.65,-0.95,-1.51,1.90
18.522,0.33,-0.63,-2.36,2.46
18.532,-0.06,-0.58,-3.10,3.16
18.542,-0.18,-0.89,-3.50,3.62
18.553,-0.06,-1.49,-3.59,3.89
18.562,0.01,-2.39,-3.23,4.02
18.572,-0.01,-3.74,-2.34,4.41
18.582,0.21,-5.15,-1.17,5.29
18.592,0.76,-6.24,-0.34,6.29
18.602,1.04,-6.45,-0.17,6.54
18.612,0.69,-5.23,-1.10,5.39
18.622,-0.43,-2.85,-2.48,3.80
18.632,-1.93,-0.30,-3.77,4.25
18.642,-3.07,1.89,-5.04,6.19
18.652,-3.35,3.39,-5.60,7.35
18.662,-2.63,3.30,-4.75,6.36
18.672,-0.96,1.53,-3.53,3.97
18.682,1.11,-0.82,-2.98,3.29
18.692,2.89,-2.25,-2.94,4.70
18.702,3.98,-2.74,-2.97,5.67
18.712,4.27,-2.93,-2.98,5.97
18.722,3.90,-2.72,-2.19,5.23
18.732,3.08,-2.04,-0.72,3.77
18.742,1.94,-1.20,0.99,2.49
18.752,0.81,-0.28,2.12,2.28
18.762,-0.27,1.66,1.68,2.37
18.772,-1.32,4.58,0.09,4.76
18.782,-1.74,7.27,-1.60,7.64
18.792,-1.55,8.83,-2.43,9.29
18.802,-0.94,9.91,-2.13,10.18
18.812,0.24,10.36,-1.12,10.42
18.822,1.57,8.77,0.26,8.92
18.832,1.90,5.98,1.69,6.50
18.842,1.80,3.42,3.16,4.99
18.852,1.18,1.21,4.85,5.13
18.862,0.40,-0.62,6.01,6.06
18.872,0.55,-1.98,5.69,6.05
18.882,1.40,-2.66,4.31,5.26
18.892,1.65,-3.07,4.06,5.35
18.902,1.67,-2.82,3.22,4.60
18.912,1.41,-1.53,1.58,2.61
18.922,0.70,-0.63,0.67,1.16
18.932,-0.08,-0.28,-0.07,0.30
18.942,-1.00,-0.27,-0.65,1.22
18.952,-1.80,-0.43,-0.64,1.96
18.962,-2.50,-0.72,0.24,2.61
18.972,-2.91,-1.07,1.37,3.39
18.982,-3.08,-1.37,2.17,4.01
18.992,-3.13,-1.41,2.41,4.19
19.002,-3.18,-1.57,2.17,4.16
19.012,-3.12,-1.96,1.86,4.13
19.022,-2.77,-2.26,1.38,3.83
19.032,-2.23,-2.46,0.86,3.43
19.041,-1.52,-2.46,0.26,2.90
19.051,-0.57,-1.96,-0.56,2.12
19.062,0.98,-1.79,-1.04,2.29
19.071,2.60,-1.71,-1.61,3.50
19.081,4.05,-2.08,-2.65,5.27
19.091,4.93,-2.62,-2.17,5.99
19.101,5.39,-3.00,-1.15,6.27
19.112,5.68,-3.36,-1.93,6.88
19.121,5.44,-2.46,-3.01,6.69
19.132,3.86,0.50,-3.07,4.96
19.141,2.06,1.09,-2.05,3.10
19.152,1.50,0.32,-2.29,2.76
19.161,1.75,0.68,-2.50,3.12
19.171,1.66,2.39,-0.14,2.91
19.181,1.23,3.84,2.44,4.71
19.191,0.26,4.79,3.57,5.98
19.201,-1.06,5.54,2.90,6.34
19.211,-1.76,5.93,1.98,6.49
19.221,-2.35,5.77,2.23,6.62
19.231,-2.85,4.89,2.16,6.06
19.241,-3.00,4.13,2.06,5.50
19.251,-2.60,3.96,2.37,5.30
19.261,-2.00,3.92,2.39,5.01
19.271,-1.75,3.77,2.12,4.67
19.281,-2.05,3.55,1.68,4.43
19.291,-2.77,3.20,0.99,4.34
19.301,-3.73,2.64,1.04,4.69
19.311,-4.50,2.33,1.01,5.16
19.321,-4.68,1.68,0.19,4.98
19.331,-4.67,0.77,-0.19,4.73
19.341,-3.75,-0.00,-1.56,4.06
19.351,-2.48,-1.04,-1.82,3.25
19.361,-1.56,-0.41,-1.10,1.96
19.371,-1.21,0.68,0.30,1.42
19.381,-1.26,0.87,0.62,1.66
19.391,-1.23,0.10,0.24,1.25
19.401,-0.80,-1.05,-0.24,1.34
19.411,0.76,-2.92,-0.99,3.18
19.421,1.35,-3.00,-0.47,3.32
19.431,0.25,-1.17,0.50,1.30
19.441,0.27,-0.92,0.10,0.96
19.451,0.91,-1.19,-0.08,1.50
19.461,1.21,-0.92,0.39,1.57
19.471,1.33,-0.71,0.51,1.59
19.481,1.33,-0.76,0.38,1.58
19.491,1.31,-1.07,-0.15,1.70
19.501,1.15,-1.65,-0.71,2.14
19.511,0.94,-1.91,-1.13,2.41
19.521,0.92,-1.66,-1.59,2.48
19.531,0.82,-1.23,-2.04,2.52
19.541,0.65,-0.87,-2.31,2.56
19.551,0.51,-1.00,-2.51,2.75
19.561,0.34,-1.38,-2.58,2.94
19.571,0.08,-1.70,-2.61,3.11
19.581,-0.23,-2.01,-2.64,3.32
19.591,-0.75,-2.44,-2.35,3.47
19.601,-1.23,-3.23,-1.90,3.94
19.611,-1.45,-4.05,-1.23,4.47
19.621,-1.13,-4.70,-0.45,4.86
19.631,-0.48,-4.52,-0.15,4.54
19.641,-0.24,-3.19,-0.28,3.21
19.650,-0.42,-1.18,-1.08,1.65
19.661,-1.35,0.79,-2.54,2.98
19.670,-2.75,2.23,-4.60,5.81
19.680,-3.26,2.59,-6.10,7.38
19.691,-2.39,1.56,-5.50,6.20
19.700,-0.51,-0.16,-3.65,3.69
19.710,1.32,-1.23,-2.49,3.07
19.721,2.19,-1.51,-1.93,3.29
19.731,2.56,-1.58,-1.82,3.52
19.740,2.71,-1.48,-1.79,3.57
19.751,2.63,-1.14,-1.48,3.22
19.760,2.48,-0.29,-0.84,2.64
19.771,1.92,0.63,0.01,2.02
19.781,0.84,1.67,0.91,2.09
19.790,-0.09,3.07,1.60,3.46
19.800,-0.60,5.13,1.79,5.47
19.810,-1.00,6.74,1.50,6.98
19.820,-1.49,6.78,0.62,6.97
19.830,-1.93,5.18,-0.54,5.55
19.840,-1.58,2.89,-0.25,3.30
19.850,0.33,2.27,0.10,2.29
19.860,2.75,3.59,0.92,4.62
19.870,3.50,4.48,2.70,6.30
19.880,2.79,4.11,4.08,6.43
19.890,1.74,3.38,4.36,5.78
19.900,0.79,2.62,4.15,4.97
19.910,0.28,1.97,3.96,4.43
19.920,0.47,1.26,3.64,3.88
19.930,0.41,0.52,3.47,3.54
19.940,0.13,-0.41,2.67,2.70
19.950,0.14,-1.51,1.64,2.23
19.960,0.12,-2.27,0.38,2.31
19.970,0.18,-2.80,-0.34,2.83
19.980,0.12,-2.55,-0.30,2.57
19.990,-0.27,-1.99,0.12,2.01
20.000,-1.08,-1.57,1.17,2.23
20.010,-1.95,-1.34,2.25,3.27
20.020,-2.72,-1.57,2.82,4.22
20.030,-3.51,-2.46,1.46,4.53
20.040,-3.86,-3.12,0.73,5.02
20.050,-2.29,-2.95,1.99,4.23
20.060,-0.36,-2.31,1.85,2.98
20.070,-0.28,-1.54,1.05,1.89
20.080,0.03,-1.22,0.82,1.47
20.090,0.43,-1.03,-0.06,1.12
20.100,0.87,-0.88,-0.59,1.37
20.110,1.49,-0.83,-0.88,1.92
20.120,1.84,-0.46,-0.95,2.12
20.130,2.17,-0.10,-1.46,2.62
20.140,2.72,-0.17,-2.07,3.42
20.150,3.21,-0.62,-2.43,4.07
20.160,3.80,-0.86,-3.30,5.10
20.170,4.01,-0.26,-4.02,5.68
20.180,4.08,0.83,-4.16,5.88
20.190,3.90,1.32,-3.73,5.55
20.200,3.05,0.74,-2.11,3.78
20.210,2.33,-0.54,-0.10,2.40
20.220,1.80,-1.49,1.11,2.58
20.230,0.53,-1.72,1.37,2.26
20.240,-1.05,-0.61,1.17,1.69
20.250,-2.30,1.62,-0.03,2.81
20.260,-3.04,2.36,-0.81,3.93
20.269,-3.06,2.73,-0.73,4.17
20.280,-2.30,3.49,-0.23,4.18
20.289,-1.20,4.06,-0.39,4.25
20.300,-0.31,4.80,0.42,4.83
20.309,0.02,5.29,3.13,6.15
20.320,-0.06,4.44,4.84,6.57
20.329,-1.12,3.22,4.88,5.95
20.340,-2.23,2.94,5.00,6.22
20.349,-2.43,3.09,3.97,5.59
20.360,-2.05,2.78,2.36,4.19
20.369,-2.06,2.42,1.48,3.51
20.380,-2.56,2.96,1.23,4.10
20.389,-2.76,3.54,0.70,4.54
20.400,-2.68,3.87,-0.01,4.71
20.409,-2.30,3.44,-0.24,4.15
20.419,-1.47,2.15,-0.73,2.70
20.429,-0.90,1.43,-0.02,1.69
20.440,-1.12,1.74,0.55,2.14
20.449,-1.61,1.99,0.17,2.57
20.459,-2.10,1.82,-0.27,2.79
20.469,-2.58,1.35,-0.24,2.92
20.479,-2.53,0.31,-0.41,2.58
20.489,-2.15,0.03,-0.14,2.16
20.499,-1.54,0.30,0.16,1.57
20.510,-0.72,0.62,0.39,1.03
20.519,-0.04,0.58,0.86,1.04
20.529,0.37,0.36,1.16,1.27
20.539,0.71,0.67,0.89,1.32
20.549,0.88,1.25,0.84,1.75
20.559,0.99,1.85,1.05,2.35
20.569,1.03,1.37,1.31,2.16
20.579,0.54,1.27,0.83,1.61
20.589,-0.18,1.41,0.16,1.44
20.599,-0.69,1.58,-0.24,1.75
20.609,-1.09,1.42,-0.73,1.93
20.619,-1.39,0.70,-1.44,2.12
20.629,-1.27,0.39,-2.07,2.46
20.639,-0.88,0.34,-2.29,2.48
20.649,-0.44,-0.07,-2.19,2.23
20.659,0.02,0.03,-1.98,1.98
20.669,0.15,-0.31,-1.29,1.34
20.679,-0.05,-1.55,-0.78,1.74
20.689,-0.30,-2.22,-0.30,2.26
20.699,-0.56,-2.63,-0.25,2.71
20.709,-1.23,-3.07,-0.64,3.37
20.719,-1.48,-2.77,-1.48,3.47
20.729,-1.43,-1.86,-2.33,3.30
20.739,-1.07,-0.97,-2.89,3.23
20.749,-0.42,0.27,-3.26,3.30
20.759,0.04,1.73,-3.04,3.49
20.769,0.33,1.72,-2.57,3.11
20.779,0.58,1.28,-1.90,2.37
20.789,0.20,0.16,-0.15,0.30
20.799,-0.03,0.12,0.27,0.30
20.809,-0.38,1.12,0.86,1.46
20.819,-0.61,1.81,1.25,2.29
20.829,-0.19,2.30,1.13,2.57
20.839,0.36,2.92,1.31,3.22
20.849,1.27,3.48,1.68,4.06
20.859,1.78,3.49,1.89,4.35
20.869,1.35,3.44,1.88,4.14
20.879,0.60,3.04,1.33,3.37
20.889,-0.39,1.99,0.51,2.09
20.899,-1.66,0.85,-0.08,1.87
20.909,-2.39,-0.11,-0.32,2.42
20.919,-2.24,-1.06,-0.44,2.51
20.929,-1.11,-1.66,0.36,2.03
20.939,0.23,-1.47,1.34,2.01
20.949,1.60,-0.76,0.81,1.95
20.959,2.52,-0.19,0.37,2.55
20.969,2.65,0.06,-0.07,2.65
20.979,2.45,-0.62,0.26,2.54
20.989,1.84,-1.41,1.47,2.74
20.999,1.42,-1.72,1.40,2.64
21.009,0.70,-1.47,1.09,1.96
21.019,-0.18,-0.54,0.45,0.73
21.028,-0.87,0.52,-0.45,1.11
21.039,-1.76,0.91,-0.67,2.09
21.048,-2.58,0.80,-0.49,2.74
21.059,-3.36,0.88,-0.05,3.47
21.069,-3.52,1.04,0.38,3.69
21.079,-3.04,0.90,0.71,3.25
21.088,-3.04,0.64,0.23,3.12
21.099,-2.57,0.58,0.41,2.67
21.108,-2.28,0.33,0.84,2.45
21.119,-2.01,0.25,0.60,2.11
21.129,-1.79,0.46,0.42,1.89
21.138,-1.80,0.41,0.12,1.86
21.148,-1.65,-0.13,-0.53,1.74
21.158,-1.22,-0.54,-1.94,2.35
21.169,-0.36,-0.49,-2.36,2.44
21.178,0.18,-0.05,-1.99,2.00
21.188,0.60,0.24,-2.50,2.58
21.198,1.15,0.04,-2.99,3.20
21.208,1.41,-0.20,-3.29,3.58
21.218,6.86,1.29,-2.64,7.46
21.228,6.40,0.35,-4.51,7.84
21.238,4.06,-1.07,-0.11,4.20
21.248,2.19,0.57,-3.85,4.47
21.258,0.04,0.36,-4.65,4.67
21.268,1.30,0.55,-2.73,3.07
21.278,4.24,0.55,-2.50,4.95
21.288,5.07,0.91,-1.65,5.41
21.298,3.31,-0.41,-0.82,3.44
21.308,0.89,-2.70,0.71,2.93
21.318,0.17,-2.87,0.61,2.94
21.328,2.31,-0.78,-1.29,2.76
21.338,5.50,1.03,-3.37,6.53
21.348,5.56,0.12,-3.09,6.37
21.358,2.43,-1.30,-0.53,2.81
21.368,1.10,-1.53,0.73,2.02
21.378,0.34,-1.27,1.46,1.97
21.388,-0.61,-1.01,0.50,1.28
21.398,-0.64,-0.82,-0.95,1.41
21.408,-0.76,-0.45,-1.15,1.45
21.418,-1.23,-0.49,-1.09,1.72
21.428,-1.36,-0.42,0.08,1.42
21.438,-0.93,-0.41,0.19,1.03
21.448,-0.16,-0.02,0.38,0.41
21.458,1.33,0.42,-0.78,1.59
21.468,2.38,0.93,-0.77,2.67
21.478,1.85,0.34,0.57,1.97
21.488,-1.24,-1.34,1.83,2.59
21.498,-1.53,-1.74,1.24,2.62
21.508,-0.32,-1.02,0.36,1.13
21.518,-0.14,-0.99,0.39,1.07
21.528,-0.07,-1.82,0.32,1.85
21.538,-0.38,-1.58,0.66,1.76
21.548,1.72,-0.75,-0.41,1.92
21.558,4.75,-0.50,-1.70,5.07
21.568,4.72,-1.02,0.09,4.83
21.578,1.07,-1.95,-2.30,3.20
21.588,-2.13,-0.54,-0.03,2.20
21.598,-1.75,0.35,-1.78,2.52
21.608,-1.26,1.00,-0.79,1.79
21.618,-1.58,0.84,-0.35,1.83
21.628,-2.91,0.95,-0.14,3.06
21.638,-3.38,1.92,-0.65,3.94
21.648,-3.76,3.01,-1.07,4.94
21.658,-4.95,3.32,-1.03,6.04
21.668,-3.48,2.56,-0.08,4.32
21.678,-1.25,0.02,0.00,1.25
21.688,2.33,-1.82,-1.41,3.27
21.697,2.74,-3.30,-2.67,5.05
21.707,2.56,-2.69,-1.51,4.01
21.718,2.32,-1.17,-0.15,2.61
21.728,1.63,0.09,-0.55,1.73
21.737,1.14,0.76,-0.97,1.68
21.748,0.83,1.62,-0.61,1.92
21.757,0.46,1.23,-0.08,1.32
21.768,0.36,0.86,0.50,1.06
21.777,0.30,-0.48,1.79,1.88
21.787,0.96,-1.90,2.43,3.23
21.797,1.17,-1.26,2.02,2.65
21.807,0.93,-0.82,1.40,1.87
21.817,0.86,-2.00,0.80,2.32
21.827,3.00,-5.58,2.15,6.69
21.837,2.73,-3.10,1.15,4.29
21.847,1.29,-0.51,-2.24,2.64
21.857,-0.09,3.46,-1.46,3.76
21.867,-0.54,0.79,0.24,0.98
21.877,-0.66,-0.86,1.64,1.97
21.887,0.66,-0.75,2.39,2.59
21.897,0.25,-1.27,2.60,2.90
21.907,0.01,-0.58,1.54,1.65
21.917,-0.74,-0.76,0.91,1.40
21.927,-0.67,0.57,0.27,0.92
21.937,-1.11,0.87,1.53,2.08
21.947,-0.77,0.16,1.50,1.69
21.957,-0.68,0.31,1.00,1.24
21.967,0.09,-0.78,0.30,0.85
21.977,1.02,-1.56,-0.26,1.89
21.987,0.88,-1.76,-0.73,2.10
21.997,1.25,-2.51,-1.05,3.00
22.007,1.20,-1.74,-0.71,2.23
22.017,1.40,-1.49,-0.59,2.13
22.027,1.51,-0.80,-0.97,1.97
22.037,1.14,-0.21,-0.39,1.23
22.047,0.34,0.02,0.77,0.84
22.057,-0.59,0.47,1.49,1.67
22.067,-1.35,0.84,1.76,2.37
22.077,-1.40,0.69,1.33,2.05
22.087,-0.80,0.44,0.23,0.94
22.097,-0.18,0.09,-0.37,0.42
22.107,0.23,-0.13,-0.26,0.37
22.117,0.20,0.10,-0.25,0.33
22.127,-0.20,0.55,-0.01,0.58
22.137,-0.12,0.71,-0.23,0.75
22.147,0.29,0.17,-0.74,0.81
22.157,0.56,-0.03,-0.64,0.85
22.167,0.56,0.08,-0.28,0.63
22.177,0.23,0.32,0.03,0.40
22.187,-0.02,0.54,0.40,0.67
22.197,0.24,0.23,0.40,0.52
22.207,0.63,-0.14,-0.04,0.64
22.217,0.47,-0.18,-0.20,0.54
22.227,0.07,0.22,-1.09,1.11
22.237,0.23,-0.09,-1.47,1.49
22.247,0.31,-0.57,-0.75,0.99
22.257,0.13,-0.19,-0.24,0.33
22.267,0.07,0.19,-0.07,0.21
22.277,0.26,0.04,0.03,0.26
22.287,0.37,-0.31,0.02,0.48
22.297,0.33,-0.29,-0.07,0.45
22.306,0.35,-0.13,-0.10,0.39
22.317,0.15,-0.02,-0.06,0.16
22.326,0.12,0.30,-0.25,0.41
22.337,0.30,0.24,-0.64,0.75
22.347,0.39,0.20,-0.88,0.98
22.357,0.41,0.27,-1.46,1.54
22.367,0.93,-0.24,-1.69,1.94
