time,ax,ay,az,atotal
0.000,0.29,-1.00,0.12,1.05
0.010,0.12,-0.77,-0.01,0.78
0.020,0.05,-0.86,-0.41,0.95
0.030,0.73,-0.71,-0.91,1.37
0.040,0.62,-0.42,-1.47,1.65
0.050,-0.40,-0.46,-2.61,2.68
0.060,-0.91,-1.25,-2.66,3.08
0.070,-0.75,-0.34,-0.65,1.05
0.080,-0.93,0.52,1.31,1.69
0.090,-1.28,0.46,1.19,1.80
0.100,-1.37,0.38,1.17,1.84
0.110,-1.16,0.46,1.83,2.22
0.120,-0.73,0.09,2.04,2.17
0.130,-0.23,0.02,1.41,1.43
0.140,0.25,0.03,0.53,0.59
0.150,0.64,-0.17,-0.51,0.84
0.160,0.90,-0.31,-1.43,1.72
0.170,1.03,-0.26,-1.63,1.95
0.180,0.46,-0.34,-1.93,2.01
0.190,0.09,-0.20,-1.68,1.69
0.200,0.42,-0.03,-0.52,0.67
0.210,1.04,0.07,0.61,1.20
0.220,1.44,-0.01,0.61,1.56
0.230,2.13,-0.24,0.23,2.15
0.240,2.91,-0.53,-0.20,2.97
0.249,3.22,-0.89,-1.10,3.52
0.260,2.36,-0.87,-1.47,2.91
0.270,1.20,-0.58,-1.13,1.74
0.280,0.80,-0.61,-0.24,1.04
0.290,1.48,-0.70,2.07,2.64
0.299,2.19,-0.52,2.72,3.53
0.310,2.51,-0.87,1.81,3.21
0.319,2.81,-0.91,1.00,3.12
0.330,2.73,-0.63,0.26,2.81
0.339,2.07,-0.34,-0.39,2.13
0.350,1.32,-0.09,-1.12,1.73
0.360,0.37,-0.83,-1.81,2.03
0.369,-0.10,-0.75,-1.79,1.94
0.379,0.17,-0.15,0.87,0.90
0.389,0.11,-0.29,2.69,2.71
0.399,0.06,-0.16,3.69,3.69
0.409,0.07,-0.11,4.27,4.27
0.419,-0.21,-0.11,3.12,3.13
0.429,-0.94,-0.11,2.53,2.70
0.439,-2.02,-0.31,1.24,2.39
0.449,-2.37,0.14,-0.24,2.39
0.459,-2.25,-0.12,-0.11,2.26
0.469,-1.79,-0.75,0.84,2.12
0.479,-1.33,-2.29,-3.65,4.51
0.489,-3.86,-0.07,-9.27,10.04
0.499,-3.13,-1.68,-4.21,5.50
0.509,-0.78,-0.46,-4.17,4.26
0.519,0.30,-1.08,-0.63,1.29
0.529,0.80,-0.35,1.20,1.48
0.539,0.31,-0.35,0.96,1.06
0.549,0.53,-0.60,0.46,0.92
0.559,2.14,-0.64,-0.97,2.43
0.569,3.65,-0.16,-2.31,4.33
0.579,4.82,-0.69,-3.46,5.97
0.589,5.18,-1.00,-4.89,7.19
0.599,5.24,-0.40,-5.59,7.67
0.609,4.73,0.59,-6.08,7.72
0.619,3.90,-0.33,-5.56,6.80
0.629,3.12,-2.71,-4.62,6.20
0.639,2.49,-2.81,-4.02,5.50
0.649,2.17,-1.94,-4.00,4.95
0.659,2.53,-0.44,-3.24,4.14
0.669,3.36,2.04,-2.78,4.81
0.679,2.86,3.79,-2.14,5.21
0.689,1.72,3.72,-1.86,4.50
0.699,0.92,1.73,-2.85,3.45
0.709,0.22,-0.47,-1.95,2.02
0.719,0.34,-1.63,-1.57,2.29
0.729,0.98,-2.30,-2.49,3.53
0.739,-0.11,-2.14,-2.68,3.43
0.749,-1.25,-1.42,-3.06,3.60
0.759,-1.00,-0.61,-3.86,4.03
0.769,-0.86,-1.08,-3.59,3.84
0.779,-1.79,-1.57,-1.54,2.83
0.789,-1.55,-1.71,-1.37,2.68
0.799,-0.93,-1.69,-1.53,2.46
0.809,-0.56,0.03,-2.31,2.38
0.819,-0.68,1.87,-2.29,3.04
0.829,0.04,2.90,-2.96,4.15
0.839,1.41,2.80,-3.94,5.03
0.849,3.25,2.35,-3.73,5.47
0.859,5.25,1.90,-2.58,6.15
0.869,7.17,0.89,-1.93,7.48
0.879,9.38,0.36,-2.24,9.65
0.889,10.73,0.17,-2.24,10.96
0.898,10.84,-0.32,-2.15,11.06
0.908,10.73,-0.52,-1.54,10.86
0.919,10.33,0.84,-1.09,10.42
0.928,10.19,3.01,-0.89,10.66
0.938,8.99,3.50,0.06,9.65
0.948,7.64,3.42,1.34,8.48
0.958,7.63,1.38,4.93,9.19
0.968,8.70,-2.14,0.36,8.96
0.978,7.91,1.67,-0.95,8.14
0.988,6.81,5.21,1.04,8.64
0.998,7.34,3.69,-0.48,8.23
1.008,7.26,3.71,-1.57,8.30
1.018,6.29,4.07,-1.06,7.57
1.028,4.96,3.10,-0.88,5.91
1.038,3.13,2.09,-0.88,3.87
1.048,1.44,3.46,-0.14,3.75
1.058,0.44,3.64,0.15,3.67
1.068,0.15,1.67,-0.68,1.81
1.078,0.52,0.50,-2.48,2.58
1.088,0.96,-0.03,-2.21,2.41
1.098,1.19,0.25,-1.98,2.32
1.108,1.11,-0.60,-2.04,2.40
1.118,1.09,-3.32,-1.30,3.72
1.128,1.20,-4.92,-0.08,5.07
1.138,1.39,-4.69,-0.14,4.89
1.148,1.65,-5.24,-1.13,5.61
1.158,1.70,-7.07,-0.47,7.29
1.168,2.48,-8.51,1.32,8.96
1.178,3.50,-7.46,2.64,8.65
1.188,3.72,-6.41,3.37,8.14
1.198,2.90,-6.64,2.27,7.59
1.208,1.66,-6.94,0.74,7.17
1.218,-0.08,-6.28,-0.30,6.29
1.228,-1.45,-3.76,-2.03,4.51
1.238,-1.37,-1.08,-2.29,2.88
1.248,-0.86,0.28,-0.61,1.09
1.258,0.08,1.00,-0.19,1.02
1.268,0.98,1.61,0.22,1.89
1.278,1.23,1.71,1.39,2.52
1.288,2.00,2.01,2.08,3.52
1.298,2.08,2.11,2.40,3.81
1.308,1.12,1.25,2.46,2.97
1.318,0.69,0.24,1.13,1.35
1.328,0.47,-1.20,0.50,1.39
1.338,1.23,-2.04,0.66,2.47
1.348,3.12,-2.75,0.62,4.20
1.358,4.32,-3.80,1.27,5.89
1.367,4.29,-4.22,0.59,6.05
1.378,2.74,-3.07,-1.04,4.24
1.388,1.53,-2.40,-1.88,3.41
1.398,0.08,-0.73,-0.83,1.11
1.408,-1.13,2.88,-1.95,3.66
1.418,0.29,4.93,-5.32,7.26
1.428,2.53,5.34,-3.95,7.11
1.438,4.29,4.86,0.30,6.49
1.447,5.06,4.30,2.88,7.24
1.457,3.30,3.55,3.69,6.09
1.468,0.24,2.95,2.58,3.92
1.478,-0.87,2.24,0.51,2.46
1.488,-1.12,2.50,-1.09,2.95
1.497,-1.77,3.13,-1.34,3.83
1.507,-2.34,3.50,-1.58,4.49
1.517,-2.40,3.82,0.09,4.51
1.528,-2.38,2.61,2.23,4.18
1.538,-1.36,1.63,2.30,3.13
1.548,1.54,0.96,-1.97,2.68
1.557,1.87,-0.19,-3.25,3.76
1.567,0.99,-1.37,-2.69,3.18
1.577,0.85,-2.21,-1.82,2.98
1.587,0.65,-2.95,0.09,3.02
1.597,0.34,-3.34,1.90,3.86
1.607,0.24,-3.35,3.59,4.91
1.617,-0.28,-2.33,3.11,3.89
1.627,0.11,-1.48,2.01,2.50
1.637,0.65,-0.58,0.48,0.99
1.647,0.57,0.20,-1.00,1.16
1.657,0.61,0.52,-2.38,2.51
1.667,0.64,2.21,0.20,2.31
1.677,-0.25,2.82,0.21,2.84
1.687,-0.71,1.72,1.36,2.30
1.697,-0.95,1.24,1.23,1.99
1.707,-0.38,1.08,-0.01,1.15
1.717,-0.02,0.70,-0.54,0.89
1.727,0.28,0.25,-0.84,0.92
1.737,0.52,-0.06,-0.94,1.08
1.747,0.67,-0.29,-0.94,1.19
1.757,0.72,-0.44,-1.03,1.34
1.767,0.71,-0.45,-1.20,1.47
1.777,1.87,-0.36,-0.72,2.03
1.787,2.17,0.20,-6.23,6.60
1.797,0.51,-0.29,-6.93,6.95
1.807,-1.37,-0.29,-3.34,3.62
1.817,-1.77,0.42,1.19,2.17
1.827,-0.90,0.71,3.81,3.98
1.837,-0.04,-0.59,2.82,2.88
1.847,0.43,-3.13,-0.97,3.31
1.857,-0.17,-5.54,-3.73,6.68
1.867,-1.60,-6.92,-2.37,7.48
1.877,-1.43,-6.82,0.69,7.00
1.887,0.58,-7.11,1.60,7.31
1.898,2.71,-6.29,1.32,6.98
1.907,4.73,-5.05,2.80,7.46
1.917,5.81,-3.61,3.12,7.52
1.927,5.51,0.07,-1.07,5.61
1.937,3.63,7.26,-0.81,8.15
1.947,1.18,12.02,-1.87,12.22
1.957,-1.10,12.52,-2.35,12.78
1.967,-2.95,10.08,-1.63,10.63
1.976,-2.10,5.43,-0.49,5.84
1.987,-1.10,3.08,1.04,3.43
1.996,-0.92,1.09,2.32,2.72
2.007,-0.21,-1.19,2.30,2.60
2.017,0.18,-2.66,1.93,3.29
2.026,0.84,-4.80,1.47,5.09
2.036,1.31,-6.78,1.55,7.08
2.046,0.92,-7.31,2.04,7.64
2.057,0.49,-7.84,0.88,7.90
2.067,-0.53,-5.90,-1.19,6.05
2.076,-1.58,-3.41,-2.46,4.49
2.087,-2.24,-3.14,-1.99,4.34
2.096,-2.10,-4.99,-1.51,5.62
2.107,-1.99,-7.24,-0.49,7.52
2.116,-2.03,-9.01,1.82,9.42
2.126,-1.00,-8.35,1.68,8.57
2.136,0.05,-6.72,2.18,7.07
2.146,1.23,-6.01,2.12,6.49
2.156,2.01,-4.44,1.35,5.06
2.166,5.52,10.70,-2.34,12.27
2.176,6.24,13.40,-4.84,15.55
2.186,5.86,3.80,-3.52,7.82
2.196,5.48,12.63,-2.27,13.95
2.206,2.63,13.82,-0.97,14.10
2.216,-0.67,8.74,1.09,8.83
2.226,-1.14,5.76,1.63,6.09
2.236,-0.18,3.32,2.23,4.00
2.246,1.12,2.44,2.61,3.74
2.256,1.72,1.28,2.36,3.19
2.266,1.63,0.27,1.43,2.19
2.276,1.50,-0.78,-0.12,1.69
2.286,1.35,-1.21,-1.52,2.37
2.296,1.03,-0.75,-2.46,2.77
2.306,0.84,-0.97,-2.86,3.13
2.316,0.56,-1.39,-2.90,3.26
2.326,0.49,-1.94,-2.33,3.07
2.336,0.80,-1.93,-1.32,2.47
2.346,1.20,-1.39,-0.08,1.83
2.357,1.08,-0.72,0.99,1.63
2.366,0.60,-0.29,1.76,1.88
2.376,0.13,-0.15,1.98,1.99
2.386,-0.19,0.01,1.76,1.77
2.396,-0.36,0.25,1.46,1.53
2.406,-0.20,0.17,0.51,0.57
2.416,0.09,-0.09,-0.62,0.63
2.426,0.37,-0.53,-1.39,1.54
2.436,0.67,-1.09,-1.92,2.31
2.446,1.29,-3.00,-3.21,4.58
2.456,2.02,-5.37,-3.71,6.83
2.466,2.66,-6.28,-2.50,7.26
2.476,3.30,-5.04,-1.09,6.13
2.486,3.49,-1.95,-0.93,4.10
2.496,3.54,-1.28,-1.20,3.95
2.506,3.28,-1.05,-1.12,3.62
2.516,2.89,-0.34,-0.96,3.06
2.526,2.89,0.34,-0.88,3.04
2.536,2.98,1.16,-0.88,3.31
2.546,2.78,1.99,-0.84,3.52
2.556,2.15,2.44,-0.61,3.31
2.566,1.46,2.48,-0.11,2.88
2.576,1.09,1.98,-0.15,2.26
2.586,0.69,0.87,-0.75,1.34
2.595,0.26,-0.26,-0.44,0.57
2.606,0.07,-0.70,0.22,0.74
2.616,-0.27,-0.76,0.06,0.82
2.626,-0.90,-0.40,-0.03,0.99
2.636,-1.33,0.53,0.68,1.58
2.646,-1.67,1.81,1.90,3.11
2.656,-1.84,3.20,2.34,4.37
2.665,-1.85,4.02,1.51,4.68
2.675,-1.86,3.70,1.11,4.29
2.686,-1.91,2.22,0.17,2.93
2.695,-1.83,0.41,-0.85,2.06
2.706,-1.58,-1.00,-1.34,2.30
2.715,-1.38,-1.75,-1.38,2.62
2.725,-1.56,-2.35,-1.21,3.07
2.735,-1.82,-2.22,-1.29,3.15
2.745,-2.02,-0.89,-1.46,2.65
2.755,-2.45,0.19,-0.77,2.57
2.765,-2.44,0.87,-0.67,2.68
2.775,-1.99,1.57,-1.91,3.18
2.785,-1.39,1.96,-2.56,3.51
2.795,-0.46,1.44,-1.95,2.47
2.805,0.63,0.33,-1.23,1.42
2.815,1.45,-0.69,-1.03,1.91
2.825,1.99,-1.47,-1.00,2.66
2.835,2.28,-1.88,-0.89,3.08
2.845,2.28,-1.97,-0.73,3.10
2.855,1.98,-1.94,-0.74,2.87
2.865,1.51,-1.81,-0.85,2.50
2.875,0.93,-1.55,-0.89,2.01
2.885,0.43,-1.25,-1.08,1.71
2.895,0.07,-1.02,-1.36,1.70
2.905,-0.10,-0.92,-1.43,1.71
2.915,-0.03,-0.88,-1.50,1.74
2.925,0.27,-0.87,-1.64,1.88
2.935,0.70,-0.93,-1.80,2.15
2.945,0.92,-1.08,-1.93,2.39
2.955,0.84,-1.22,-2.08,2.55
2.965,0.60,-1.38,-2.42,2.85
2.975,0.31,-1.46,-2.66,3.05
2.985,0.10,-1.49,-2.76,3.14
2.995,-0.01,-1.62,-2.74,3.19
3.005,-0.13,-1.89,-2.53,3.16
3.015,-0.37,-2.25,-2.09,3.09
3.025,-0.61,-2.70,-1.88,3.35
3.035,-0.77,-3.05,-1.84,3.64
3.045,-0.81,-3.16,-1.74,3.70
3.055,-0.78,-2.70,-1.54,3.20
3.065,-0.92,-1.45,-1.40,2.22
3.075,-1.49,0.31,-1.84,2.39
3.085,-2.45,2.19,-2.85,4.35
3.095,-3.09,3.61,-4.31,6.42
3.105,-2.87,3.87,-4.86,6.84
3.115,-1.60,2.87,-5.05,6.02
3.125,-0.20,1.34,-4.89,5.07
3.135,1.09,-0.07,-4.44,4.57
3.145,2.30,-1.29,-4.44,5.16
3.155,3.06,-2.10,-4.47,5.81
3.165,3.17,-2.20,-3.84,5.44
3.175,2.91,-1.83,-3.02,4.58
3.185,2.53,-1.42,-2.45,3.80
3.195,2.17,-0.96,-1.79,2.96
3.205,1.78,-0.53,-0.96,2.09
3.214,1.28,-0.09,0.13,1.29
3.225,0.58,0.47,1.00,1.25
3.235,-0.16,1.33,0.65,1.49
3.244,-0.70,2.07,-0.50,2.24
3.255,-1.03,2.69,-0.95,3.03
3.264,-0.96,3.89,-1.25,4.20
3.274,-0.83,5.48,-1.09,5.65
3.284,-0.88,6.64,-0.41,6.71
3.294,-0.83,6.61,0.14,6.66
3.304,-0.61,5.17,1.00,5.30
3.314,0.06,3.41,1.57,3.76
3.324,0.63,1.66,2.39,2.98
3.334,0.89,0.12,3.88,3.98
3.344,1.02,-0.87,4.69,4.88
3.354,1.00,-1.48,3.70,4.11
3.364,1.77,-1.47,2.22,3.20
3.374,2.06,-1.39,2.00,3.20
3.384,1.73,-1.23,2.38,3.19
3.394,1.60,-0.75,1.68,2.44
3.404,1.12,-0.36,1.14,1.64
3.414,0.30,-0.19,0.93,0.99
3.424,-0.60,-0.15,0.84,1.05
3.434,-1.42,-0.22,0.98,1.74
3.444,-2.09,-0.39,1.24,2.46
3.454,-2.59,-0.71,1.46,3.06
3.464,-2.92,-1.19,1.79,3.63
3.474,-3.08,-1.67,2.17,4.12
3.484,-3.07,-1.89,2.38,4.32
3.494,-2.87,-1.81,2.25,4.08
3.504,-2.58,-1.90,1.87,3.71
3.514,-2.32,-2.17,1.59,3.55
3.524,-1.95,-2.41,1.24,3.34
3.534,-1.30,-2.68,0.63,3.04
3.544,-0.46,-2.84,-0.04,2.88
3.554,0.49,-2.68,-0.67,2.80
3.564,1.63,-2.30,-1.05,3.01
3.574,2.98,-2.00,-1.19,3.78
3.584,4.34,-2.14,-1.58,5.09
3.594,5.43,-2.62,-2.03,6.36
3.604,6.00,-2.87,-1.87,6.90
3.614,5.92,-2.86,-1.79,6.81
3.624,5.34,-2.12,-2.67,6.34
3.634,4.59,-0.12,-3.61,5.84
3.644,3.81,1.43,-3.77,5.55
3.654,3.03,2.22,-3.35,5.04
3.664,2.70,2.36,-3.69,5.15
3.674,2.54,3.53,-3.94,5.87
3.684,2.71,4.78,-2.03,5.86
3.694,2.51,5.32,1.01,5.97
3.704,1.33,5.93,2.55,6.59
3.714,-0.91,5.61,2.83,6.35
3.724,-3.63,3.08,3.23,5.75
3.734,-5.54,1.15,2.27,6.09
3.744,-6.07,0.06,1.10,6.16
3.754,-5.85,-0.36,1.38,6.03
3.764,-5.16,0.36,2.52,5.75
3.774,-3.58,1.54,2.55,4.66
3.784,-1.77,2.69,1.11,3.41
3.794,-0.65,3.94,-0.01,4.00
3.804,-0.35,5.15,0.25,5.17
3.814,-0.70,5.62,1.20,5.79
3.824,-1.51,4.42,1.73,4.98
3.834,-1.93,2.33,0.72,3.10
3.843,-1.81,0.56,0.29,1.92
3.853,-1.68,-0.54,0.20,1.77
3.863,-1.42,-1.15,0.04,1.83
3.873,-1.62,-1.32,0.30,2.11
3.883,-1.88,-0.77,0.83,2.20
3.893,-1.93,-0.59,0.93,2.22
3.904,-1.65,-1.10,0.20,1.99
3.913,-1.08,-1.62,-0.29,1.97
3.923,-0.41,-2.01,-0.48,2.11
3.933,0.26,-2.36,-0.59,2.44
3.943,0.99,-2.30,-0.64,2.59
3.954,1.65,-2.13,-0.77,2.80
3.963,1.95,-1.81,-0.85,2.79
3.973,1.84,-1.39,-0.74,2.42
3.983,1.63,-1.07,-0.67,2.06
3.993,1.25,-1.08,-0.91,1.88
4.003,1.11,-0.88,-0.89,1.67
4.013,1.24,-0.81,-0.71,1.64
4.023,1.42,-1.10,-0.95,2.04
4.033,1.44,-1.43,-1.32,2.42
4.043,1.08,-1.59,-1.83,2.66
4.053,0.64,-1.44,-2.71,3.13
4.063,0.26,-1.32,-3.41,3.67
4.073,-0.05,-1.31,-3.75,3.97
4.083,-0.31,-1.43,-3.80,4.07
4.093,-0.61,-1.90,-3.44,3.98
4.103,-0.81,-2.96,-2.96,4.26
4.113,-0.72,-4.28,-2.74,5.13
4.123,-0.57,-5.42,-2.46,5.98
4.133,-0.29,-5.71,-2.68,6.32
4.143,-0.18,-4.48,-3.40,5.63
4.153,-1.54,-1.93,-4.00,4.70
4.163,-3.22,1.04,-5.26,6.26
4.173,-3.78,3.13,-5.99,7.74
4.183,-2.76,3.21,-5.42,6.88
4.193,-0.41,1.57,-4.70,4.97
4.203,2.14,-0.49,-4.27,4.80
4.213,4.13,-2.00,-3.99,6.08
4.223,5.15,-2.64,-3.53,6.79
4.233,5.05,-2.72,-2.48,6.25
4.243,4.13,-2.21,-0.89,4.77
4.253,2.74,-0.81,0.93,3.01
4.263,1.13,0.88,2.00,2.46
4.273,-0.29,2.20,1.22,2.54
4.283,-1.47,4.73,-0.89,5.04
4.293,-1.95,7.68,-2.17,8.22
4.303,-1.61,9.55,-2.75,10.06
4.313,-0.80,10.66,-2.52,10.99
4.323,0.59,10.98,-1.65,11.12
4.333,1.87,8.84,0.83,9.08
4.343,2.23,5.89,2.34,6.72
4.353,1.61,3.30,4.30,5.66
4.363,1.07,0.97,5.61,5.79
4.373,0.92,-0.87,5.20,5.35
4.383,0.75,-2.32,5.10,5.66
4.393,1.05,-2.75,4.71,5.56
4.403,1.79,-2.62,4.01,5.11
4.412,1.72,-2.83,3.25,4.64
4.423,1.21,-2.61,2.34,3.71
4.433,0.59,-1.94,1.44,2.49
4.443,-0.20,-1.09,0.95,1.46
4.453,-0.97,-0.55,0.51,1.23
4.463,-1.67,-0.31,0.65,1.82
4.473,-2.19,-0.36,1.21,2.53
4.483,-2.51,-0.67,1.89,3.21
4.492,-2.69,-1.11,2.58,3.89
4.503,-2.86,-1.45,3.04,4.42
4.512,-2.94,-1.51,2.98,4.45
4.523,-2.94,-1.51,2.53,4.16
4.532,-2.80,-1.69,1.98,3.82
4.542,-2.42,-1.86,1.47,3.39
4.553,-1.83,-2.02,1.04,2.92
4.562,-1.04,-1.94,0.41,2.24
4.572,-0.01,-1.69,-0.11,1.69
4.582,1.30,-1.57,-0.62,2.13
4.592,2.84,-1.89,-1.78,3.84
4.602,4.18,-2.60,-3.10,5.81
4.612,4.98,-3.14,-3.44,6.82
4.622,5.15,-3.36,-3.17,6.92
4.632,5.09,-3.17,-3.65,7.02
4.642,4.69,-0.69,-4.17,6.31
4.652,4.01,1.53,-3.73,5.68
4.662,3.21,0.94,-2.26,4.03
4.672,2.50,0.96,-2.69,3.80
4.682,2.00,3.24,-2.70,4.67
4.692,2.01,4.91,-0.75,5.36
4.702,1.50,5.69,1.80,6.15
4.712,-0.01,6.52,3.90,7.60
4.722,-1.76,7.06,4.97,8.81
4.732,-3.10,6.06,3.65,7.73
4.742,-4.24,3.59,2.14,5.95
4.752,-4.75,1.57,1.87,5.34
4.762,-4.52,1.29,2.65,5.40
4.772,-3.74,2.06,3.20,5.34
4.782,-2.56,2.74,2.01,4.26
4.792,-1.91,3.08,0.77,3.71
4.802,-1.93,3.25,-0.16,3.79
4.812,-2.43,3.22,0.20,4.04
4.822,-3.17,3.43,1.70,4.97
4.832,-3.81,3.45,1.92,5.48
4.842,-3.59,2.06,0.42,4.16
4.852,-2.72,0.60,-0.87,2.91
4.862,-1.94,-0.51,0.25,2.02
4.872,-1.47,-0.72,0.95,1.89
4.882,-1.26,-0.96,0.72,1.74
4.892,-1.37,-1.08,0.13,1.75
4.902,-1.18,-1.40,-0.69,1.96
4.912,-0.81,-1.89,-0.77,2.19
4.922,0.02,-2.04,-0.17,2.05
4.932,0.60,-2.29,-0.49,2.41
4.942,1.17,-1.62,-0.53,2.07
4.952,1.61,-0.97,0.03,1.88
4.962,1.85,-0.68,-0.10,1.97
4.972,1.88,-0.75,-0.54,2.09
4.982,1.75,-1.05,-0.82,2.20
4.992,1.65,-1.30,-0.93,2.30
5.001,1.58,-1.41,-1.05,2.36
5.012,1.63,-1.40,-1.34,2.54
5.022,1.76,-1.52,-1.66,2.86
5.032,1.85,-1.60,-1.91,3.11
5.042,1.72,-1.65,-2.17,3.23
5.052,1.36,-1.83,-2.45,3.34
5.062,0.95,-1.84,-3.13,3.76
5.071,0.53,-1.88,-3.51,4.02
5.082,0.14,-2.00,-3.46,4.00
5.092,-0.22,-2.35,-2.80,3.66
5.101,-0.28,-2.94,-1.89,3.51
5.111,0.24,-3.70,-1.31,3.93
5.121,0.98,-4.58,-0.85,4.76
5.131,1.22,-4.97,-1.11,5.23
5.141,0.45,-4.08,-2.22,4.67
5.152,-1.35,-2.19,-3.86,4.64
5.161,-2.92,-0.08,-5.70,6.40
5.171,-3.40,1.52,-6.68,7.65
5.182,-2.51,1.81,-5.57,6.37
5.191,-0.59,0.64,-4.33,4.42
5.201,1.68,-0.72,-4.04,4.44
5.211,3.47,-1.52,-4.05,5.55
5.221,4.14,-1.94,-3.74,5.91
5.231,3.97,-2.06,-2.90,5.33
5.241,3.12,-1.63,-1.20,3.72
5.251,1.90,-0.20,0.63,2.01
5.261,0.75,1.51,1.58,2.31
5.271,-0.28,3.18,1.31,3.45
5.281,-1.26,5.33,0.30,5.48
5.291,-1.66,7.68,-0.86,7.90
5.301,-1.05,9.66,-1.77,9.88
5.311,-0.08,10.74,-1.92,10.91
5.321,1.57,10.06,-1.24,10.25
5.331,2.58,7.27,0.34,7.72
5.341,2.32,4.54,2.21,5.56
5.351,1.60,2.35,3.77,4.73
5.361,0.71,0.54,4.42,4.51
5.371,0.11,-0.87,4.68,4.77
5.381,0.21,-1.82,4.68,5.03
5.391,0.70,-2.22,4.02,4.65
5.401,0.77,-2.50,3.33,4.24
5.411,0.59,-2.23,2.62,3.50
5.421,0.40,-1.62,1.75,2.42
5.431,-0.09,-1.24,1.18,1.71
5.441,-0.73,-1.07,0.77,1.51
5.451,-1.40,-1.01,0.44,1.78
5.461,-2.25,-1.22,0.80,2.68
5.471,-2.96,-1.42,1.44,3.59
5.481,-3.38,-1.71,2.05,4.30
5.491,-3.57,-2.02,2.49,4.80
5.501,-3.64,-2.10,2.76,5.03
5.511,-3.56,-2.00,2.68,4.89
5.521,-3.21,-1.96,2.27,4.39
5.531,-2.80,-2.04,1.83,3.92
5.541,-2.41,-2.17,1.36,3.52
5.551,-1.80,-2.33,0.80,3.05
5.561,-0.84,-2.24,-0.01,2.39
5.571,0.43,-1.93,-0.57,2.06
5.581,2.09,-1.50,-1.10,2.80
5.591,3.99,-1.28,-2.47,4.86
5.601,5.56,-1.60,-3.84,6.95
5.611,6.45,-2.14,-4.15,7.97
5.621,6.43,-2.86,-4.17,8.18
5.631,6.18,-2.55,-4.89,8.28
5.641,5.07,0.25,-5.33,7.36
5.650,3.55,1.05,-3.07,4.81
5.661,2.22,-0.43,-1.81,2.90
5.670,1.31,0.04,-2.58,2.90
5.681,0.98,1.73,-1.68,2.61
5.691,0.91,3.05,0.55,3.23
5.701,0.12,3.76,2.47,4.50
5.710,-1.35,4.50,3.45,5.83
5.720,-2.59,5.62,4.50,7.65
5.730,-2.84,6.74,4.29,8.47
5.740,-2.60,7.18,2.59,8.06
5.751,-2.80,5.92,1.37,6.69
5.760,-2.95,3.33,1.33,4.64
5.770,-2.60,1.84,1.81,3.66
5.780,-2.25,1.66,1.54,3.20
5.790,-2.32,1.58,1.34,3.11
5.800,-2.80,1.48,1.55,3.52
5.810,-3.14,1.78,1.63,3.96
5.820,-3.38,2.71,1.07,4.46
5.830,-3.87,3.38,1.00,5.24
5.840,-4.13,3.32,0.54,5.33
5.850,-3.52,2.10,-0.60,4.15
5.860,-1.68,0.73,-1.07,2.13
5.870,-0.31,-0.33,-0.06,0.46
5.880,0.21,-1.22,0.28,1.27
5.890,0.23,-1.36,0.10,1.38
5.900,-0.04,-1.35,0.28,1.38
5.910,-0.28,-1.29,0.38,1.38
5.920,-0.27,-1.32,0.43,1.41
5.930,0.07,-1.38,0.41,1.44
5.940,0.65,-1.32,0.23,1.49
5.950,1.23,-1.30,-0.07,1.79
5.960,1.61,-1.28,-0.38,2.09
5.970,1.76,-1.31,-0.47,2.24
5.980,1.97,-1.53,-0.34,2.52
5.990,1.87,-1.98,-0.75,2.82
6.000,1.59,-1.30,-1.14,2.35
6.010,1.48,-0.57,-0.96,1.85
6.020,1.49,-0.56,-1.14,1.96
6.030,1.46,-0.82,-1.51,2.26
6.040,1.26,-1.02,-2.12,2.67
6.050,0.87,-1.18,-2.69,3.06
6.060,0.34,-1.49,-3.13,3.48
6.070,-0.10,-1.92,-3.47,3.97
6.080,-0.35,-2.42,-3.40,4.19
6.090,-0.39,-2.96,-2.74,4.05
6.100,-0.10,-3.73,-1.89,4.18
6.110,0.46,-4.73,-1.07,4.88
6.120,0.81,-5.29,-0.77,5.40
6.130,0.58,-4.93,-1.34,5.14
6.140,-0.64,-3.45,-2.54,4.33
6.150,-2.32,-1.28,-4.03,4.83
6.160,-3.46,0.65,-5.55,6.57
6.169,-3.51,2.01,-6.24,7.44
6.180,-2.18,1.87,-5.24,5.97
6.190,-0.19,0.16,-4.13,4.14
6.200,2.14,-1.49,-3.56,4.41
6.210,4.24,-2.12,-3.23,5.74
6.220,5.33,-2.11,-3.02,6.48
6.230,5.19,-2.00,-2.50,6.09
6.240,4.18,-1.51,-1.20,4.60
6.250,2.70,-0.44,0.57,2.79
6.260,1.23,1.01,1.76,2.37
6.269,-0.25,2.60,1.75,3.14
6.280,-1.60,4.58,0.45,4.87
6.289,-2.47,6.48,-0.65,6.97
6.299,-2.20,8.12,-1.87,8.62
6.310,-1.30,9.45,-2.32,9.81
6.320,-0.02,9.58,-1.37,9.67
6.329,1.31,8.24,0.15,8.35
6.339,2.24,5.88,0.87,6.36
6.350,2.44,3.76,1.68,4.79
6.359,2.00,2.04,3.42,4.46
6.369,1.26,0.29,5.32,5.48
6.379,1.33,-1.21,5.81,6.08
6.389,2.05,-2.03,4.44,5.30
6.399,2.02,-2.82,4.51,5.69
6.409,1.65,-2.77,4.10,5.21
6.419,1.35,-1.60,2.68,3.40
6.429,0.91,-0.80,1.62,2.03
6.439,0.24,-0.51,0.85,1.02
6.449,-0.47,-0.32,0.11,0.58
6.459,-1.20,-0.38,-0.05,1.26
6.469,-1.87,-0.75,0.55,2.09
6.479,-2.39,-1.36,1.35,3.07
6.489,-2.79,-1.90,2.13,4.00
6.499,-3.09,-2.22,2.55,4.58
6.509,-3.24,-2.14,2.49,4.62
6.519,-3.21,-2.09,2.24,4.44
6.529,-3.03,-2.33,1.88,4.26
6.539,-2.64,-2.51,1.35,3.88
6.549,-1.93,-2.61,0.70,3.32
6.559,-0.93,-2.46,-0.14,2.64
6.569,0.28,-2.01,-0.74,2.16
6.579,1.81,-1.40,-1.11,2.55
6.589,3.61,-1.40,-2.15,4.43
6.599,5.07,-2.05,-3.11,6.29
6.609,5.75,-2.64,-2.85,6.94
6.619,5.95,-3.45,-2.80,7.43
6.629,6.12,-3.57,-3.73,8.01
6.639,5.48,-0.72,-4.83,7.34
6.649,3.70,1.31,-3.62,5.34
6.659,2.68,0.47,-1.99,3.37
6.669,2.46,1.07,-2.67,3.79
6.679,2.48,3.64,-1.42,4.63
6.689,2.17,5.21,1.80,5.92
6.699,0.93,5.98,3.31,6.90
6.709,-1.13,6.48,3.48,7.44
6.719,-2.63,6.47,3.12,7.65
6.729,-3.49,5.71,2.11,7.01
6.739,-3.96,4.37,1.37,6.05
6.749,-4.12,3.18,1.43,5.40
6.759,-3.82,2.52,2.21,5.09
6.769,-2.83,2.49,2.33,4.43
6.779,-2.02,2.36,1.58,3.49
6.789,-1.85,2.26,0.72,3.01
6.799,-2.17,2.39,0.66,3.30
6.809,-2.52,2.75,1.57,4.04
6.819,-2.83,3.02,2.18,4.67
6.829,-2.74,2.85,1.07,4.09
6.839,-2.79,1.77,-0.01,3.30
6.849,-2.84,-0.13,-0.44,2.88
6.859,-1.84,-1.29,-0.76,2.37
6.869,-0.64,-1.90,-0.53,2.08
6.879,-0.56,-2.10,-0.27,2.19
6.889,-0.97,-1.02,0.39,1.46
6.899,-1.25,-1.00,0.55,1.69
6.908,-1.16,-1.55,0.26,1.96
6.918,-0.77,-1.80,-0.22,1.97
6.929,-0.11,-1.65,-0.54,1.74
6.938,0.78,-1.32,-0.72,1.69
6.949,1.53,-1.02,-0.78,2.00
6.959,1.89,-0.91,-0.75,2.23
6.968,1.85,-0.97,-0.52,2.16
6.978,1.63,-1.19,-0.26,2.03
6.988,1.35,-1.30,-0.22,1.88
6.999,1.17,-1.34,-0.38,1.82
7.008,1.10,-1.33,-0.67,1.85
7.018,1.06,-1.26,-1.13,1.99
7.028,1.06,-1.23,-1.71,2.36
7.038,1.02,-1.27,-1.95,2.54
7.048,0.70,-1.22,-2.34,2.73
7.058,0.35,-1.06,-3.09,3.29
7.068,0.12,-1.09,-3.61,3.77
7.078,-0.01,-1.22,-3.89,4.08
7.088,-0.27,-1.60,-3.71,4.05
7.098,-0.40,-2.25,-3.18,3.92
7.108,-0.23,-3.23,-2.47,4.07
7.118,-0.07,-4.38,-1.64,4.67
7.128,0.09,-5.07,-1.14,5.20
7.138,0.11,-4.67,-1.25,4.84
7.148,-0.79,-3.09,-1.57,3.56
7.158,-2.43,-0.91,-2.66,3.72
7.168,-3.54,0.93,-4.83,6.06
7.178,-3.50,2.16,-6.01,7.28
7.188,-2.31,1.90,-5.06,5.87
7.198,-0.33,0.18,-4.33,4.35
7.208,2.05,-1.58,-4.09,4.84
7.218,4.14,-2.47,-3.70,6.07
7.228,5.20,-2.74,-3.29,6.74
7.238,5.16,-2.78,-2.61,6.42
7.248,4.29,-2.44,-1.35,5.12
7.258,2.71,-1.32,0.47,3.05
7.268,0.95,0.32,1.87,2.12
7.278,-0.72,2.20,1.87,2.98
7.288,-2.08,4.62,0.28,5.08
7.298,-2.63,7.08,-1.20,7.65
7.308,-2.36,9.01,-2.44,9.63
7.318,-1.49,10.28,-2.84,10.77
7.328,0.20,10.20,-1.95,10.39
7.338,1.73,8.00,0.40,8.20
7.348,2.11,5.34,2.44,6.24
7.358,1.93,3.11,3.43,5.02
7.368,1.26,1.15,4.35,4.68
7.378,0.63,-0.42,4.82,4.88
7.388,0.51,-1.51,5.07,5.31
7.398,1.32,-2.13,4.30,4.98
7.408,1.67,-2.62,3.75,4.87
7.418,1.51,-2.38,2.89,4.04
7.428,1.21,-1.52,1.61,2.53
7.438,0.86,-0.77,0.70,1.35
7.447,0.18,-0.51,0.28,0.61
7.458,-0.64,-0.33,0.04,0.72
7.468,-1.48,-0.44,0.27,1.57
7.478,-2.17,-0.84,1.20,2.62
7.488,-2.67,-1.34,2.25,3.74
7.497,-2.97,-1.83,2.97,4.59
7.508,-3.26,-2.08,3.11,4.96
7.517,-3.43,-2.07,2.72,4.84
7.528,-3.48,-2.15,2.15,4.62
7.538,-3.33,-2.36,1.56,4.37
7.548,-2.85,-2.44,0.94,3.87
7.558,-1.96,-2.35,0.19,3.06
7.567,-0.67,-1.97,-0.40,2.12
7.578,0.83,-1.45,-0.49,1.74
7.587,2.63,-1.25,-1.27,3.18
7.598,4.28,-1.80,-2.71,5.37
7.607,5.22,-2.55,-3.21,6.64
7.617,5.46,-3.27,-3.15,7.10
7.627,5.53,-3.63,-3.93,7.70
7.637,5.39,-1.64,-4.99,7.53
7.648,3.90,1.56,-4.36,6.05
7.657,2.44,1.44,-1.90,3.41
7.667,1.75,0.58,-1.64,2.47
7.677,1.47,1.50,-2.66,3.39
7.687,1.29,3.12,-1.32,3.62
7.697,1.11,4.51,1.69,4.94
7.707,0.35,5.36,3.27,6.29
7.717,-1.24,5.64,3.31,6.66
7.727,-2.45,5.44,2.85,6.61
7.737,-3.10,4.84,2.68,6.35
7.747,-3.27,3.87,2.17,5.51
7.757,-3.15,2.98,1.82,4.70
7.767,-2.84,2.36,2.28,4.34
7.777,-2.27,2.12,2.41,3.93
7.787,-1.74,2.21,1.63,3.25
7.797,-1.57,2.71,0.76,3.23
7.807,-2.02,3.07,0.78,3.76
7.817,-2.66,3.05,1.17,4.21
7.827,-3.15,3.40,1.77,4.97
7.837,-3.47,3.42,1.42,5.08
7.847,-3.49,2.49,0.50,4.31
7.857,-3.31,1.00,-0.60,3.51
7.867,-2.21,-0.04,-0.74,2.33
7.877,-1.19,-0.78,-0.03,1.42
7.887,-0.80,-1.38,0.17,1.60
7.897,-0.77,-1.35,0.39,1.60
7.907,-1.28,-1.46,0.37,1.98
7.917,-1.89,-1.13,0.24,2.21
7.927,-1.95,-0.74,0.37,2.12
7.937,-1.35,-0.74,0.40,1.59
7.947,-0.31,-1.03,0.12,1.09
7.957,0.64,-1.38,-0.45,1.58
7.967,1.34,-1.67,-0.69,2.24
7.977,1.83,-1.97,-0.54,2.74
7.987,2.11,-2.14,-0.36,3.03
7.997,2.24,-2.06,-0.33,3.06
8.007,2.18,-1.67,-0.61,2.81
8.017,2.11,-1.19,-1.19,2.70
8.027,1.85,-0.94,-1.69,2.67
8.037,1.51,-0.78,-2.64,3.13
8.047,1.11,-0.92,-3.73,4.00
8.057,0.69,-1.22,-4.45,4.66
8.067,0.25,-1.60,-4.56,4.84
8.077,-0.23,-2.08,-4.23,4.72
8.086,-0.68,-2.84,-3.57,4.61
8.097,-0.89,-4.11,-2.56,4.92
8.107,-0.67,-5.54,-1.57,5.80
8.117,-0.18,-6.47,-0.70,6.51
8.127,-0.13,-6.08,-0.44,6.09
8.136,-0.88,-4.09,-1.24,4.36
8.147,-2.16,-1.67,-2.51,3.71
8.157,-3.23,0.52,-4.17,5.30
8.166,-3.31,2.18,-5.45,6.74
8.176,-2.39,2.87,-5.49,6.64
8.186,-0.85,2.51,-5.03,5.68
8.197,1.26,1.06,-4.85,5.12
8.207,3.54,-0.44,-4.57,5.79
8.216,5.23,-1.29,-4.26,6.87
8.226,5.83,-1.76,-3.42,6.98
8.236,5.40,-1.98,-1.92,6.07
8.246,4.23,-1.68,-0.07,4.55
8.256,2.56,-0.73,1.53,3.07
8.266,0.88,0.21,1.99,2.19
8.276,-0.68,1.90,0.86,2.20
8.286,-2.14,4.51,-1.32,5.16
8.296,-2.89,6.65,-2.30,7.61
8.306,-2.71,8.42,-2.70,9.25
8.317,-1.78,9.84,-2.87,10.40
8.326,-0.16,9.74,-1.66,9.88
8.336,1.09,7.66,0.27,7.75
8.346,1.26,5.10,2.20,5.70
8.356,0.99,3.07,3.48,4.74
8.366,0.44,1.47,5.03,5.26
8.376,0.10,-0.12,5.90,5.90
8.386,0.48,-1.73,5.33,5.62
8.396,1.54,-2.50,3.99,4.95
8.406,1.94,-3.20,4.01,5.49
8.416,2.01,-3.32,3.80,5.43
8.426,1.66,-2.08,2.46,3.62
8.436,0.93,-0.82,1.24,1.75
8.446,0.11,-0.40,0.74,0.85
8.456,-0.75,-0.18,0.49,0.91
8.466,-1.58,-0.23,0.60,1.71
8.476,-2.31,-0.52,1.20,2.66
8.486,-2.83,-0.97,1.91,3.55
8.496,-3.18,-1.41,2.53,4.30
8.506,-3.31,-1.62,2.71,4.58
8.516,-3.19,-1.50,2.62,4.40
8.526,-2.93,-1.55,2.48,4.14
8.536,-2.65,-1.73,2.11,3.81
8.546,-2.23,-1.88,1.57,3.31
8.556,-1.58,-1.98,1.11,2.76
8.566,-0.73,-1.92,0.57,2.13
8.576,0.25,-1.69,0.07,1.71
8.586,1.52,-1.54,-0.50,2.22
8.596,2.95,-1.79,-1.92,3.95
8.606,4.23,-2.62,-3.38,6.01
8.616,4.96,-3.18,-3.78,7.01
8.626,5.23,-3.42,-3.86,7.34
8.636,5.50,-3.28,-4.80,8.01
8.646,5.38,-0.97,-5.49,7.75
8.656,4.37,1.53,-3.87,6.04
8.666,3.45,0.88,-1.81,4.00
8.676,2.88,0.31,-1.81,3.42
8.686,2.33,1.85,-2.34,3.79
8.696,1.91,4.28,-0.87,4.76
8.706,1.14,5.60,2.00,6.06
8.716,-0.26,6.11,3.99,7.30
8.726,-1.75,6.25,4.00,7.62
8.736,-2.80,5.71,3.54,7.28
8.746,-3.63,3.82,2.38,5.78
8.756,-3.84,2.06,1.35,4.56
8.765,-3.66,1.79,1.94,4.51
8.776,-2.91,2.57,2.85,4.81
8.786,-1.90,3.07,2.35,4.31
8.796,-1.37,3.32,1.17,3.78
8.805,-1.56,3.52,0.29,3.86
8.815,-2.39,3.32,0.70,4.15
8.826,-3.43,3.40,2.15,5.29
8.835,-4.01,3.57,2.01,5.74
8.845,-4.48,2.85,0.66,5.35
8.855,-4.00,1.10,-0.79,4.22
8.865,-2.83,-0.56,-0.75,2.98
8.875,-1.54,-0.79,-0.25,1.75
8.885,-0.68,-1.01,0.30,1.25
8.895,-0.39,-1.36,0.57,1.52
8.905,-0.57,-1.50,0.35,1.65
8.915,-0.69,-1.60,0.12,1.74
8.925,-0.58,-1.72,0.07,1.82
8.935,-0.18,-1.75,0.13,1.77
8.945,0.71,-1.67,0.25,1.83
8.955,1.48,-2.02,-0.35,2.53
8.965,1.83,-1.68,-0.85,2.62
8.975,1.86,-1.01,-0.51,2.18
8.985,1.76,-0.83,-0.58,2.03
8.995,1.72,-0.99,-0.73,2.12
9.005,1.78,-1.12,-0.83,2.26
9.015,1.84,-1.11,-1.01,2.37
9.025,1.82,-0.98,-1.29,2.43
9.035,1.69,-0.86,-1.66,2.52
9.045,1.41,-0.81,-1.98,2.56
9.055,0.92,-0.74,-2.36,2.64
9.065,0.38,-0.76,-2.83,2.96
9.075,-0.13,-0.84,-3.20,3.31
9.085,-0.47,-1.09,-3.27,3.48
9.095,-0.68,-1.83,-3.02,3.60
9.105,-0.57,-3.00,-2.63,4.03
9.115,-0.02,-4.47,-2.14,4.96
9.125,0.62,-5.69,-1.66,5.95
9.135,0.74,-5.87,-1.48,6.10
9.145,0.41,-4.65,-2.04,5.09
9.155,-0.48,-2.61,-2.87,3.91
9.165,-1.82,-0.50,-3.83,4.27
9.175,-2.75,1.29,-4.95,5.81
9.185,-2.64,2.48,-5.38,6.48
9.195,-1.44,2.40,-4.82,5.57
9.205,0.38,0.86,-4.08,4.19
9.215,2.40,-0.79,-3.63,4.42
9.225,4.17,-1.71,-3.40,5.64
9.235,5.06,-2.07,-3.20,6.34
9.245,4.86,-2.23,-2.66,5.97
9.255,3.96,-1.93,-1.41,4.62
9.265,2.61,-1.07,0.30,2.84
9.275,0.95,-0.10,1.74,1.99
9.285,-0.53,0.65,2.28,2.43
9.295,-1.72,2.43,0.88,3.11
9.305,-2.72,4.72,-1.22,5.58
9.315,-3.00,6.90,-2.11,7.82
9.325,-2.24,9.15,-2.95,9.87
9.335,-1.12,10.76,-2.93,11.20
9.345,0.63,10.24,-2.02,10.46
9.355,1.77,7.49,0.34,7.70
9.365,2.01,4.70,2.23,5.58
9.375,2.20,2.21,3.77,4.89
9.385,1.94,-0.00,6.01,6.32
9.395,2.12,-1.49,6.90,7.36
9.404,2.83,-2.61,5.66,6.84
9.415,2.54,-3.58,5.02,6.67
9.425,1.86,-2.96,4.11,5.40
9.434,1.01,-1.50,3.15,3.63
9.445,0.02,-0.66,2.24,2.33
9.454,-0.71,-0.07,0.94,1.18
9.464,-1.32,0.20,-0.10,1.34
9.474,-1.89,0.11,-0.33,1.92
9.484,-2.27,-0.33,0.09,2.29
9.494,-2.43,-0.95,0.82,2.74
9.504,-2.49,-1.55,1.74,3.41
9.515,-2.50,-2.00,2.39,4.00
9.524,-2.54,-2.00,2.54,4.11
9.534,-2.69,-1.82,2.35,4.01
9.544,-2.63,-2.06,2.08,3.94
9.554,-2.25,-2.41,1.58,3.65
9.564,-1.71,-2.70,1.10,3.38
9.574,-0.95,-2.68,0.55,2.90
9.584,0.09,-2.35,-0.16,2.35
9.594,1.32,-1.91,-0.86,2.47
9.604,2.92,-1.97,-1.94,4.02
9.614,4.64,-2.63,-3.12,6.18
9.624,6.01,-3.06,-3.12,7.43
9.634,6.63,-3.43,-2.83,7.99
9.644,6.56,-3.66,-3.70,8.37
9.654,5.74,-1.54,-5.10,7.83
9.664,3.65,2.10,-4.15,5.92
9.674,2.13,2.43,-2.29,3.95
9.684,1.67,1.59,-1.95,3.02
9.694,1.44,2.11,-1.80,3.12
9.704,1.45,3.33,-0.89,3.74
9.714,1.10,4.82,0.76,5.01
9.724,0.00,5.98,2.30,6.40
9.734,-1.54,6.65,2.96,7.44
9.744,-2.85,5.74,2.36,6.83
9.754,-3.64,2.92,1.98,5.07
9.764,-3.99,1.08,2.16,4.66
9.774,-3.94,1.32,2.66,4.94
9.784,-3.06,2.12,3.35,5.01
9.794,-1.67,2.96,2.56,4.26
9.804,-1.10,3.43,1.26,3.82
9.814,-1.33,3.88,0.16,4.10
9.824,-1.99,3.96,0.47,4.46
9.834,-2.60,3.79,1.05,4.72
9.844,-3.04,3.54,1.10,4.79
9.854,-3.64,2.41,1.00,4.48
9.864,-3.94,1.00,0.71,4.12
9.874,-3.53,0.09,-0.52,3.57
9.884,-2.67,-0.94,-1.45,3.18
9.894,-1.84,-1.74,-1.17,2.79
9.904,-1.27,-0.72,0.39,1.51
9.914,-1.00,-0.50,1.29,1.71
9.923,-0.84,-1.48,0.99,1.97
9.934,-0.71,-2.27,0.21,2.39
9.943,-0.41,-2.41,-0.48,2.49
9.954,0.13,-2.05,-0.58,2.13
9.964,0.69,-1.64,-0.39,1.82
9.974,1.10,-1.46,-0.43,1.88
9.984,1.38,-1.50,-0.57,2.12
9.994,1.51,-1.53,-0.72,2.27
10.004,1.50,-1.35,-0.79,2.17
10.014,1.50,-1.15,-0.75,2.03
10.024,1.53,-1.08,-0.76,2.02
10.034,1.51,-1.11,-0.99,2.12
10.044,1.36,-1.19,-1.37,2.27
10.053,1.02,-1.29,-1.59,2.29
10.064,0.53,-1.14,-1.93,2.31
10.074,0.09,-0.82,-2.72,2.85
10.084,-0.28,-0.85,-3.25,3.37
10.093,-0.59,-1.23,-3.60,3.84
10.103,-0.79,-1.88,-3.75,4.27
10.114,-0.93,-2.61,-3.47,4.45
10.123,-1.02,-3.55,-2.26,4.33
10.134,-0.71,-4.68,-1.34,4.92
10.143,-0.38,-5.51,-0.70,5.57
10.153,-0.28,-5.26,-1.30,5.43
10.163,-0.75,-3.57,-2.84,4.62
10.173,-2.02,-1.07,-4.50,5.04
10.183,-3.19,1.01,-5.72,6.63
10.193,-3.24,2.30,-5.80,7.03
10.203,-1.95,2.28,-4.95,5.79
10.213,0.35,0.64,-4.53,4.59
10.223,2.58,-1.49,-4.35,5.27
10.233,4.09,-2.93,-4.23,6.57
10.243,4.59,-3.21,-3.82,6.78
10.253,4.21,-3.04,-2.65,5.83
10.263,3.17,-2.38,-0.63,4.01
10.273,1.64,-0.93,1.47,2.39
10.283,0.11,0.85,2.23,2.39
10.293,-1.26,3.57,0.85,3.88
10.303,-2.45,7.08,-0.51,7.50
10.313,-2.40,10.12,-1.87,10.56
10.323,-1.26,12.42,-2.96,12.83
10.334,0.39,13.12,-2.77,13.41
10.343,2.25,11.20,-1.02,11.47
10.353,2.88,7.63,1.26,8.25
10.363,2.86,4.32,2.88,5.93
10.373,2.72,1.47,4.07,5.11
10.383,2.21,-0.64,5.70,6.15
10.393,1.67,-2.38,7.29,7.84
10.403,2.17,-3.37,5.51,6.81
10.413,2.06,-3.69,4.12,5.90
10.423,1.33,-3.06,3.39,4.75
10.433,0.58,-2.06,2.26,3.11
10.443,-0.17,-1.24,1.42,1.90
10.453,-0.95,-0.67,0.85,1.44
10.463,-1.65,-0.34,0.29,1.71
10.473,-2.33,-0.41,0.23,2.38
10.483,-3.01,-0.77,0.79,3.20
10.493,-3.45,-1.18,1.63,3.99
10.503,-3.61,-1.60,2.48,4.66
10.513,-3.70,-2.03,2.85,5.10
10.523,-3.71,-2.18,2.60,5.03
10.533,-3.61,-2.21,2.20,4.77
10.543,-3.32,-2.43,1.70,4.45
10.553,-2.82,-2.65,1.11,4.03
10.563,-2.14,-2.85,0.52,3.60
10.573,-1.20,-2.63,-0.15,2.90
10.583,-0.00,-2.08,-0.60,2.16
10.593,1.48,-1.49,-0.76,2.23
10.603,3.18,-1.18,-1.51,3.71
10.613,4.96,-1.58,-2.65,5.85
10.623,6.00,-2.22,-2.82,6.99
10.632,6.40,-2.48,-2.84,7.43
10.643,6.76,-2.24,-3.70,8.03
10.652,6.73,-0.59,-4.84,8.31
10.663,4.98,1.66,-3.69,6.42
10.673,3.22,1.48,-1.91,4.03
10.683,2.18,0.38,-2.81,3.57
10.692,1.46,0.65,-3.02,3.41
10.703,0.88,2.33,-0.38,2.52
10.713,0.25,3.76,2.69,4.63
10.722,-0.85,4.75,3.88,6.19
10.733,-2.45,5.38,3.46,6.86
10.742,-3.30,5.81,3.04,7.34
10.752,-3.27,5.85,2.46,7.14
10.762,-3.03,5.43,1.42,6.38
10.772,-2.71,4.45,1.09,5.32
10.782,-2.08,2.95,1.46,3.90
10.793,-1.52,2.10,1.80,3.16
10.802,-1.41,1.90,1.32,2.71
10.812,-1.83,1.95,0.65,2.75
10.823,-2.50,1.66,0.73,3.09
10.832,-3.01,1.89,1.73,3.95
10.842,-3.30,3.02,2.74,5.25
10.852,-3.54,3.55,2.26,5.50
10.862,-3.94,2.88,0.59,4.92
10.872,-3.78,1.42,-0.80,4.12
10.882,-3.31,0.10,-0.87,3.43
10.892,-1.82,-0.47,-0.41,1.92
10.902,-0.51,-0.66,0.43,0.94
10.912,-0.31,-1.15,0.45,1.27
10.922,-0.65,-1.02,0.56,1.33
10.932,-1.26,-0.86,0.52,1.61
10.942,-1.48,-0.77,0.28,1.69
10.952,-0.97,-0.81,-0.01,1.26
10.962,-0.12,-1.08,-0.26,1.12
10.972,0.66,-1.34,-0.46,1.56
10.982,1.27,-1.65,-0.47,2.13
10.992,1.64,-1.98,-0.46,2.61
11.002,1.73,-2.08,-0.64,2.78
11.012,1.66,-1.93,-0.77,2.66
11.022,1.48,-1.54,-0.86,2.30
11.032,1.38,-1.11,-1.14,2.10
11.042,1.11,-0.82,-1.35,1.93
11.052,0.90,-0.50,-2.08,2.32
11.062,0.71,-0.39,-2.88,3.00
11.072,0.35,-0.59,-3.44,3.50
11.082,-0.08,-1.15,-3.63,3.81
11.092,-0.42,-1.95,-3.49,4.02
11.102,-0.57,-3.01,-3.00,4.28
11.112,-0.42,-4.33,-2.22,4.88
11.122,0.02,-5.73,-1.41,5.90
11.132,0.33,-6.34,-0.67,6.39
11.142,0.17,-5.68,-0.75,5.74
11.152,-0.51,-3.89,-2.00,4.40
11.162,-1.78,-1.34,-3.75,4.37
11.172,-3.09,1.11,-5.33,6.25
11.182,-3.34,2.94,-6.21,7.64
11.192,-2.25,3.52,-5.92,7.25
11.202,-0.11,2.05,-5.15,5.55
11.212,2.26,-0.15,-4.48,5.02
11.222,4.30,-1.56,-4.17,6.19
11.232,5.48,-2.08,-4.00,7.10
11.242,5.50,-2.49,-3.33,6.89
11.252,4.51,-2.37,-1.69,5.37
11.262,3.05,-1.63,0.51,3.50
11.272,1.31,-0.45,2.24,2.63
11.282,-0.21,0.55,2.50,2.57
11.291,-1.40,2.32,0.99,2.88
11.301,-2.12,4.91,-1.08,5.45
11.312,-2.37,6.92,-1.67,7.50
11.321,-1.60,8.41,-1.82,8.75
11.331,-0.65,9.39,-1.27,9.49
11.341,0.47,8.97,-0.25,8.99
11.352,1.01,7.08,0.72,7.19
11.361,0.40,4.90,2.13,5.36
11.371,-0.06,2.96,3.62,4.68
11.381,-0.26,0.96,4.84,4.94
11.392,-0.15,-1.00,5.57,5.66
11.401,0.94,-2.17,4.32,4.92
11.411,1.92,-2.73,3.35,4.73
11.421,2.33,-2.99,3.14,4.92
11.431,2.74,-2.51,2.45,4.45
11.441,2.43,-1.30,1.44,3.11
11.451,1.61,-0.37,0.43,1.70
11.461,0.77,0.09,-0.05,0.77
11.471,-0.16,0.14,0.08,0.23
11.481,-1.09,-0.23,0.80,1.37
11.491,-1.91,-0.80,1.78,2.73
11.501,-2.62,-1.36,2.62,3.95
11.511,-3.13,-1.63,3.10,4.69
11.521,-3.36,-1.71,3.09,4.88
11.531,-3.36,-1.80,2.84,4.76
11.541,-3.10,-2.01,2.41,4.41
11.551,-2.69,-2.21,1.84,3.94
11.561,-2.17,-2.34,1.29,3.44
11.571,-1.37,-2.45,0.62,2.88
11.581,-0.33,-2.38,-0.10,2.41
11.591,0.93,-2.03,-0.57,2.31
11.601,2.57,-1.68,-1.67,3.50
11.611,4.32,-2.39,-3.27,5.92
11.621,5.48,-3.14,-3.99,7.47
11.631,6.08,-3.64,-3.66,7.98
11.641,6.38,-3.91,-3.91,8.44
11.651,6.46,-2.46,-4.45,8.22
11.661,4.96,1.15,-3.60,6.24
11.671,3.02,2.04,-1.57,3.97
11.681,2.01,1.26,-1.81,2.98
11.691,1.34,2.07,-3.04,3.91
11.701,1.01,3.93,-1.36,4.28
11.711,0.68,5.55,1.66,5.84
11.721,-0.26,6.84,2.66,7.34
11.731,-1.83,7.52,2.83,8.24
11.741,-3.37,6.78,2.86,8.09
11.751,-4.30,3.82,2.23,6.17
11.761,-4.45,1.30,1.56,4.89
11.771,-4.34,0.90,1.90,4.82
11.781,-3.63,1.29,2.49,4.59
11.790,-2.45,1.73,2.32,3.80
11.801,-1.64,2.13,1.50,3.08
11.811,-1.27,2.85,0.11,3.12
11.821,-1.50,3.77,0.09,4.06
11.831,-2.03,4.59,1.50,5.24
11.841,-2.29,4.94,1.92,5.78
11.850,-2.45,3.73,0.96,4.57
11.861,-2.60,1.44,-0.30,2.98
11.871,-1.89,-0.46,-0.09,1.95
11.881,-1.09,-1.81,0.07,2.11
11.891,-0.55,-2.11,0.13,2.18
11.901,-0.97,-1.53,0.22,1.82
11.911,-1.65,-0.78,0.55,1.91
11.921,-2.03,-0.88,0.53,2.27
11.931,-2.00,-1.35,0.49,2.46
11.941,-1.56,-1.66,0.18,2.29
11.950,-0.77,-1.80,-0.22,1.97
11.961,0.28,-1.87,-0.51,1.96
11.971,1.19,-1.92,-0.68,2.36
11.981,1.68,-1.79,-0.78,2.58
11.990,1.76,-1.58,-0.81,2.50
12.000,1.60,-1.37,-0.75,2.23
12.010,1.38,-1.21,-0.71,1.97
12.020,1.35,-1.20,-0.70,1.94
12.030,1.27,-1.27,-0.77,1.96
12.040,1.29,-1.22,-1.41,2.27
12.050,1.32,-1.06,-2.06,2.66
12.060,1.10,-0.86,-2.60,2.95
12.070,0.60,-0.75,-3.06,3.21
12.080,0.05,-0.83,-3.38,3.48
12.090,-0.41,-1.09,-3.49,3.68
12.100,-0.88,-1.73,-3.10,3.65
12.110,-1.33,-2.77,-2.47,3.94
12.120,-1.20,-4.28,-1.83,4.80
12.130,-0.42,-5.75,-1.05,5.86
12.140,0.39,-6.30,-0.65,6.35
12.150,0.42,-5.38,-1.37,5.57
12.160,-0.89,-3.12,-2.95,4.39
12.170,-2.55,-0.57,-4.82,5.48
12.180,-3.44,1.42,-6.38,7.38
12.190,-3.24,2.22,-6.26,7.40
12.200,-1.99,1.30,-5.22,5.74
12.210,-0.40,-0.43,-4.26,4.30
12.220,1.62,-2.02,-3.47,4.33
12.230,3.63,-2.95,-3.20,5.67
12.240,4.65,-2.83,-2.87,6.15
12.250,4.72,-2.27,-2.29,5.72
12.260,3.89,-1.37,-0.90,4.22
12.270,2.42,0.20,0.84,2.57
12.280,0.98,2.11,1.44,2.74
12.290,-0.46,4.94,0.32,4.97
12.300,-1.54,7.77,-1.12,8.00
12.310,-1.56,9.76,-2.35,10.16
12.320,-1.26,11.04,-2.19,11.32
12.330,-0.05,11.22,-1.63,11.34
12.340,1.68,9.26,-0.52,9.43
12.350,2.63,6.26,0.75,6.83
12.360,2.64,3.99,2.13,5.24
12.370,2.06,2.08,4.11,5.05
12.380,1.28,0.65,5.71,5.89
12.390,0.86,-0.98,6.04,6.18
12.400,1.44,-2.22,4.53,5.25
12.410,1.61,-3.12,4.11,5.41
12.420,1.22,-3.08,3.83,5.07
12.430,0.68,-1.89,2.44,3.16
12.440,0.14,-0.94,1.40,1.69
12.450,-0.55,-0.69,0.89,1.25
12.460,-1.30,-0.65,0.43,1.52
12.470,-2.07,-0.76,0.24,2.21
12.480,-2.77,-0.95,0.79,3.03
12.489,-3.26,-1.22,1.76,3.90
12.500,-3.51,-1.63,2.68,4.70
12.509,-3.64,-2.12,3.15,5.26
12.520,-3.67,-2.33,3.00,5.28
12.529,-3.62,-2.16,2.65,4.97
12.539,-3.37,-2.23,2.33,4.66
12.549,-2.89,-2.36,1.91,4.19
12.560,-2.16,-2.39,1.32,3.48
12.570,-1.26,-2.31,0.68,2.72
12.580,-0.18,-1.96,0.02,1.97
12.589,1.26,-1.53,-0.28,2.00
12.600,3.11,-1.21,-1.29,3.58
12.609,5.07,-1.65,-3.08,6.15
12.619,6.41,-2.27,-3.91,7.84
12.629,7.00,-2.64,-4.08,8.52
12.639,7.07,-3.08,-4.64,9.00
12.649,6.37,-1.00,-5.09,8.21
12.659,4.35,2.03,-3.98,6.24
12.669,2.47,1.40,-2.16,3.57
12.679,1.30,0.20,-2.08,2.46
12.689,0.56,0.74,-1.49,1.76
12.699,0.16,2.27,0.30,2.29
12.709,-0.34,3.44,1.67,3.84
12.719,-1.58,4.00,2.34,4.90
12.729,-3.10,4.50,2.98,6.22
12.739,-3.61,5.35,4.04,7.61
12.749,-3.24,6.35,3.16,7.80
12.759,-2.64,6.85,1.45,7.48
12.769,-2.54,5.64,0.80,6.24
12.779,-2.35,3.89,1.12,4.68
12.789,-1.87,3.16,1.92,4.14
12.799,-1.74,2.95,1.78,3.86
12.809,-2.14,2.74,1.20,3.68
12.819,-2.74,2.15,1.11,3.65
12.829,-3.17,2.25,1.80,4.28
12.839,-3.53,2.90,1.80,4.91
12.849,-3.86,2.89,0.68,4.87
12.859,-4.02,2.00,-0.76,4.55
12.869,-2.91,0.05,-0.52,2.96
12.879,-1.72,-0.67,0.64,1.95
12.889,-0.62,-1.05,-0.08,1.22
12.899,-0.36,-0.76,-0.03,0.84
12.909,-0.75,-0.18,0.28,0.82
12.919,-1.08,-0.53,0.53,1.31
12.929,-1.07,-1.29,0.52,1.76
12.939,-0.61,-1.82,0.04,1.92
12.949,0.24,-2.09,-0.37,2.13
12.959,1.07,-2.23,-0.61,2.55
12.969,1.70,-2.10,-0.79,2.81
12.979,1.97,-1.76,-0.88,2.78
12.989,1.93,-1.53,-0.83,2.60
12.999,1.86,-1.48,-0.76,2.50
13.009,1.80,-1.46,-0.69,2.42
13.019,1.71,-1.31,-0.68,2.26
13.029,1.60,-1.05,-1.04,2.18
13.039,1.49,-0.90,-1.35,2.20
13.049,1.33,-0.88,-1.64,2.29
13.059,1.09,-1.02,-2.12,2.59
13.069,0.76,-1.28,-2.77,3.15
13.079,0.43,-1.64,-3.38,3.78
13.089,0.12,-2.02,-3.65,4.17
13.098,-0.23,-2.56,-3.46,4.31
13.109,-0.44,-3.23,-2.77,4.27
13.118,-0.34,-3.88,-2.03,4.40
13.129,-0.02,-4.51,-1.29,4.69
13.139,0.22,-4.66,-1.01,4.77
13.149,0.16,-4.03,-1.48,4.29
13.158,-0.76,-2.48,-2.26,3.44
13.168,-2.27,-0.33,-3.51,4.20
13.179,-3.03,1.70,-5.02,6.10
13.188,-2.61,2.81,-5.67,6.85
13.198,-1.16,1.95,-4.89,5.39
13.208,0.51,-0.14,-3.91,3.95
13.218,2.33,-1.84,-3.42,4.53
13.228,4.04,-2.66,-3.18,5.79
13.238,4.92,-2.92,-3.03,6.47
13.248,4.72,-2.85,-2.63,6.11
13.258,3.84,-2.19,-1.60,4.70
13.268,2.48,-0.96,0.17,2.67
13.278,0.92,0.54,1.69,2.00
13.288,-0.38,2.01,1.45,2.50
13.298,-1.62,4.16,-0.47,4.49
13.308,-2.54,6.23,-1.67,6.93
13.318,-2.54,8.46,-2.02,9.06
13.328,-1.56,10.22,-2.70,10.69
13.338,-0.07,10.81,-2.24,11.04
13.348,1.25,9.35,0.07,9.44
13.358,1.82,6.59,2.21,7.18
13.368,1.97,4.00,3.04,5.39
13.378,1.74,1.79,3.91,4.63
13.388,0.92,0.04,5.29,5.37
13.398,0.51,-1.39,6.25,6.43
13.408,1.12,-2.48,5.15,5.83
13.418,1.38,-3.15,4.35,5.54
13.428,1.01,-3.03,3.71,4.89
13.438,0.66,-2.14,2.55,3.40
13.448,0.11,-1.41,1.63,2.15
13.458,-0.66,-0.90,0.71,1.32
13.468,-1.48,-0.63,-0.20,1.62
13.478,-2.27,-0.66,-0.23,2.38
13.488,-2.87,-0.86,0.74,3.09
13.498,-3.20,-1.23,1.93,3.94
13.508,-3.31,-1.77,2.74,4.65
13.518,-3.26,-1.96,2.96,4.82
13.528,-3.16,-1.85,2.53,4.45
13.538,-2.96,-1.98,1.87,4.02
13.548,-2.64,-2.12,1.32,3.64
13.558,-2.07,-2.30,0.81,3.20
13.568,-1.24,-2.25,0.10,2.57
13.578,-0.17,-1.83,-0.30,1.87
13.588,1.27,-1.28,-0.53,1.88
13.598,2.99,-1.36,-1.28,3.52
13.608,4.47,-2.02,-2.33,5.43
13.618,5.46,-2.78,-2.18,6.51
13.628,5.90,-3.14,-1.80,6.93
13.638,5.96,-3.19,-2.93,7.37
13.648,5.05,-0.96,-4.92,7.12
13.658,3.37,1.54,-5.07,6.27
13.668,1.86,1.26,-3.45,4.12
13.678,0.87,0.82,-2.60,2.87
13.688,0.41,1.66,-1.43,2.23
13.698,0.55,3.12,0.51,3.21
13.708,0.45,4.61,2.05,5.07
13.718,-0.66,5.35,2.53,5.95
13.728,-2.29,5.52,2.95,6.66
13.738,-3.10,5.93,3.29,7.46
13.748,-3.06,6.04,2.67,7.28
13.758,-2.55,5.54,1.35,6.24
13.768,-2.06,3.82,1.16,4.49
13.778,-1.99,2.22,2.02,3.60
13.788,-1.79,1.80,2.32,3.44
13.798,-1.47,1.80,1.82,2.94
13.808,-1.52,1.76,1.02,2.54
13.818,-1.94,1.50,0.43,2.49
13.827,-2.37,1.38,0.66,2.82
13.838,-2.77,1.84,1.44,3.62
13.847,-2.90,2.52,1.32,4.06
13.857,-3.24,2.44,0.71,4.12
13.867,-3.05,1.20,-0.10,3.28
13.878,-1.93,0.01,-0.25,1.94
13.887,-0.87,-0.40,-0.05,0.96
13.897,-0.76,-0.17,0.01,0.78
13.907,-0.96,0.15,0.05,0.97
13.917,-1.26,-0.03,0.23,1.28
13.927,-1.34,-0.39,0.57,1.51
13.937,-1.22,-0.89,0.36,1.55
13.947,-0.89,-1.33,0.07,1.60
13.957,-0.25,-1.53,-0.12,1.56
13.967,0.46,-1.65,-0.24,1.73
13.977,0.96,-1.55,-0.29,1.85
13.987,1.24,-1.24,-0.39,1.80
13.997,1.26,-1.16,-0.36,1.75
14.007,1.26,-1.26,-0.31,1.81
14.017,1.32,-1.38,-0.35,1.94
14.027,1.46,-1.49,-0.48,2.14
14.037,1.56,-1.57,-0.81,2.36
14.047,1.60,-1.62,-1.25,2.60
14.057,1.51,-1.54,-1.78,2.79
14.067,1.28,-1.48,-2.31,3.03
14.077,0.83,-1.32,-2.65,3.08
14.087,0.31,-1.11,-2.86,3.09
14.097,-0.22,-0.95,-2.88,3.04
14.107,-0.69,-0.98,-2.73,2.98
14.117,-1.00,-1.26,-2.31,2.81
14.127,-1.23,-2.11,-1.64,2.94
14.137,-1.09,-3.34,-0.98,3.65
14.147,-0.63,-4.48,-0.44,4.55
14.157,-0.19,-4.94,-0.54,4.97
14.167,-0.33,-4.28,-1.34,4.49
14.177,-1.37,-2.49,-2.53,3.81
14.187,-2.47,-0.35,-4.25,4.93
14.197,-2.82,1.27,-5.96,6.72
14.207,-2.32,1.86,-6.07,6.76
14.217,-1.11,0.83,-5.02,5.21
14.227,0.23,-0.88,-4.29,4.39
14.237,2.04,-2.36,-3.72,4.85
14.247,3.70,-3.16,-3.14,5.79
14.257,4.53,-3.28,-2.59,6.16
14.267,4.44,-2.92,-1.94,5.66
14.277,3.65,-2.16,-1.00,4.36
14.287,2.41,-0.89,0.35,2.59
14.297,1.13,0.75,1.34,1.91
14.307,-0.26,2.88,1.33,3.18
14.317,-1.59,5.33,0.18,5.57
14.327,-2.35,7.58,-0.72,7.97
14.337,-2.26,9.61,-2.11,10.10
14.347,-1.56,10.79,-2.57,11.21
14.357,-0.40,9.78,-1.18,9.86
14.367,0.75,7.34,0.52,7.39
14.377,1.25,4.74,1.81,5.23
14.387,1.82,2.76,2.45,4.11
14.397,1.87,1.17,3.40,4.06
14.407,1.32,-0.30,4.93,5.11
14.417,1.42,-1.55,5.00,5.43
14.426,1.85,-2.47,4.38,5.36
14.437,1.89,-2.97,4.51,5.72
14.447,1.44,-2.10,3.55,4.37
14.457,0.81,-0.95,2.18,2.51
14.467,0.20,-0.59,1.34,1.47
14.477,-0.46,-0.44,0.55,0.84
14.487,-1.28,-0.37,-0.13,1.34
14.497,-2.16,-0.59,-0.40,2.28
14.506,-3.01,-1.04,0.08,3.19
14.516,-3.63,-1.33,1.07,4.02
14.526,-3.91,-1.79,1.85,4.68
14.536,-4.03,-2.11,2.33,5.11
14.546,-3.88,-1.85,2.34,4.90
14.556,-3.59,-1.92,2.10,4.59
14.566,-3.24,-2.09,1.64,4.19
14.576,-2.91,-2.13,1.08,3.77
14.586,-2.53,-2.21,0.57,3.41
14.596,-1.79,-2.03,-0.03,2.71
14.606,-0.63,-1.68,-0.53,1.87
14.616,1.01,-1.31,-0.91,1.88
14.626,2.95,-1.12,-2.00,3.73
14.636,4.60,-1.34,-3.37,5.86
14.646,5.36,-2.02,-3.50,6.71
14.656,5.77,-2.90,-3.67,7.43
14.666,6.45,-3.12,-4.31,8.36
14.676,6.68,-1.23,-4.93,8.39
14.686,5.16,0.66,-3.91,6.51
14.696,3.52,0.27,-1.71,3.93
14.706,2.65,0.09,-2.41,3.58
14.716,2.25,1.08,-2.34,3.42
14.726,1.81,2.35,0.82,3.08
14.736,1.28,3.74,3.60,5.35
14.746,0.07,4.52,3.65,5.81
14.756,-1.79,4.71,2.44,5.60
14.766,-2.84,5.10,2.01,6.17
14.776,-3.04,5.95,2.38,7.10
14.786,-2.89,6.49,1.95,7.37
14.796,-2.95,5.46,1.50,6.39
14.806,-3.02,3.16,1.45,4.61
14.816,-2.98,1.58,1.47,3.69
14.826,-3.12,1.19,1.55,3.68
14.836,-3.19,1.22,2.07,3.99
14.846,-3.49,1.47,2.94,4.80
14.856,-3.80,1.89,2.71,5.04
14.866,-3.62,2.52,1.69,4.72
14.876,-3.33,2.67,0.47,4.29
14.886,-3.15,2.15,-0.81,3.90
14.896,-2.49,0.61,-0.74,2.67
14.906,-1.30,-0.52,-0.10,1.41
14.916,0.08,-0.84,-0.48,0.98
14.926,0.62,-0.84,0.05,1.04
14.936,0.38,-0.37,0.59,0.79
14.946,-0.39,-0.12,0.57,0.70
14.956,-1.05,-0.61,0.47,1.30
14.966,-1.23,-0.99,0.31,1.61
14.976,-0.87,-1.23,-0.02,1.51
14.986,-0.26,-1.49,-0.34,1.55
14.996,0.39,-1.53,-0.63,1.70
15.006,0.86,-1.40,-0.79,1.82
15.015,1.13,-1.20,-0.87,1.86
15.026,1.26,-1.11,-0.78,1.85
15.036,1.33,-1.09,-0.65,1.84
15.046,1.44,-1.05,-0.72,1.92
15.055,1.57,-1.06,-0.82,2.07
15.066,1.54,-1.12,-0.96,2.13
15.076,1.36,-1.18,-1.24,2.19
15.086,1.11,-1.16,-1.63,2.29
15.096,0.78,-1.08,-2.14,2.52
15.105,0.41,-1.11,-2.71,2.95
15.115,0.09,-1.13,-3.27,3.46
15.126,-0.10,-1.21,-3.76,3.95
15.135,-0.29,-1.45,-3.69,3.97
15.146,-0.53,-1.99,-3.06,3.69
15.155,-0.47,-3.04,-2.32,3.85
15.165,-0.22,-4.42,-1.60,4.71
15.175,0.03,-5.56,-1.39,5.73
15.185,0.02,-5.47,-1.86,5.77
15.195,-0.73,-3.91,-2.69,4.81
15.205,-2.09,-1.54,-3.63,4.46
15.215,-2.84,0.79,-4.59,5.46
15.225,-2.65,2.15,-4.76,5.86
15.235,-1.27,2.21,-4.21,4.92
15.245,0.83,1.01,-3.78,4.00
15.255,2.81,-0.38,-3.59,4.57
15.265,4.00,-1.15,-3.54,5.47
15.275,4.14,-1.64,-3.11,5.43
15.285,3.57,-1.69,-1.79,4.34
15.295,2.62,-0.98,0.03,2.80
15.305,1.46,0.09,1.82,2.34
15.315,0.25,1.12,2.47,2.72
15.325,-1.05,2.79,1.40,3.30
15.335,-2.18,4.88,-0.03,5.35
15.345,-2.35,6.61,-0.84,7.07
15.355,-1.69,8.00,-1.56,8.32
15.365,-0.48,8.49,-1.73,8.67
15.375,1.08,7.65,-1.17,7.81
15.385,1.86,5.84,0.18,6.13
15.395,1.86,3.96,1.74,4.71
15.405,1.76,1.97,3.01,4.01
15.415,1.45,0.20,4.19,4.44
15.425,1.14,-1.45,5.34,5.65
15.435,1.59,-2.40,4.25,5.14
15.445,1.80,-2.97,3.90,5.23
15.455,1.28,-2.56,3.62,4.61
15.465,0.75,-1.48,2.62,3.10
15.475,0.25,-0.56,1.66,1.77
15.485,-0.39,-0.19,1.00,1.09
15.495,-1.09,-0.04,0.32,1.13
15.505,-1.74,-0.08,-0.04,1.75
15.515,-2.26,-0.29,0.15,2.28
15.525,-2.73,-0.68,1.07,3.01
15.535,-3.08,-1.20,2.12,3.93
15.545,-3.21,-1.59,2.62,4.44
15.555,-3.11,-1.57,2.72,4.42
15.565,-3.00,-1.66,2.60,4.30
15.575,-2.89,-1.86,2.09,4.02
15.585,-2.66,-2.16,1.40,3.70
15.595,-2.21,-2.46,0.84,3.41
15.605,-1.52,-2.50,0.34,2.94
15.615,-0.53,-2.20,-0.30,2.28
15.625,0.73,-1.89,-0.72,2.15
15.635,2.27,-1.56,-1.35,3.07
15.644,4.01,-1.41,-2.57,4.97
15.655,5.24,-1.80,-3.44,6.52
15.664,5.70,-2.47,-3.22,7.00
15.675,5.78,-3.01,-3.65,7.47
15.685,5.56,-1.82,-4.57,7.42
15.695,4.62,0.90,-4.95,6.83
15.704,3.39,1.22,-3.59,5.08
15.715,2.61,-0.10,-1.76,3.15
15.724,2.13,0.07,-1.62,2.67
15.734,1.81,2.08,-1.43,3.11
15.744,1.21,3.41,1.32,3.85
15.754,0.05,4.53,3.66,5.83
15.764,-1.62,5.56,4.01,7.04
15.774,-2.56,6.17,3.91,7.74
15.784,-2.51,6.59,3.27,7.77
15.794,-2.55,5.90,1.95,6.72
15.804,-2.89,4.04,1.68,5.24
15.814,-2.99,2.64,1.92,4.43
15.824,-2.64,2.33,1.98,4.04
15.834,-2.03,2.23,1.67,3.45
15.844,-1.70,2.35,1.91,3.47
15.854,-1.94,2.56,2.16,3.87
15.864,-2.65,2.46,2.18,4.23
15.874,-3.01,2.59,1.80,4.36
15.884,-3.00,2.21,1.03,3.87
15.894,-3.13,1.44,0.62,3.50
15.904,-2.99,0.80,-1.00,3.26
15.914,-1.73,-0.41,-1.67,2.44
15.924,-1.13,-0.87,0.26,1.45
15.934,-0.95,-0.41,0.56,1.18
15.944,-0.82,-0.37,-0.08,0.91
15.954,-1.14,-0.62,0.21,1.31
15.964,-1.25,-0.85,0.50,1.59
15.974,-1.03,-1.23,0.45,1.66
15.984,-0.52,-1.44,0.35,1.57
15.994,0.18,-1.42,0.13,1.44
16.004,0.94,-1.31,-0.17,1.62
16.014,1.58,-1.26,-0.25,2.04
16.024,1.89,-1.22,-0.16,2.26
16.034,1.87,-1.20,-0.20,2.23
16.044,1.67,-1.19,-0.33,2.08
16.054,1.38,-1.09,-0.60,1.86
16.064,1.15,-0.99,-0.99,1.81
16.074,1.08,-1.01,-1.32,1.98
16.084,1.00,-1.13,-1.51,2.13
16.094,0.89,-1.22,-1.94,2.46
16.104,0.72,-1.33,-2.38,2.82
16.114,0.56,-1.54,-2.78,3.23
16.124,0.47,-1.91,-3.28,3.82
16.134,0.38,-2.41,-3.51,4.27
16.144,0.29,-2.87,-3.31,4.39
16.154,0.24,-3.40,-2.83,4.43
16.164,0.33,-3.89,-2.18,4.47
16.174,0.61,-4.36,-1.27,4.58
16.184,0.76,-4.70,-0.48,4.79
16.194,0.75,-4.24,-0.76,4.37
16.204,0.06,-2.68,-1.53,3.08
16.214,-1.36,-0.70,-2.72,3.12
16.224,-2.42,1.01,-4.71,5.39
16.234,-2.62,2.42,-6.23,7.18
16.244,-2.05,2.70,-5.78,6.70
16.254,-0.60,1.45,-4.64,4.90
16.263,1.50,-0.38,-4.10,4.39
16.274,3.52,-1.70,-3.78,5.44
16.284,4.68,-2.36,-3.60,6.36
16.294,4.74,-2.68,-3.37,6.41
16.304,4.09,-2.57,-2.42,5.41
16.314,2.93,-1.89,-0.79,3.58
16.323,1.48,-0.71,0.88,1.86
16.334,0.29,0.37,1.61,1.68
16.344,-0.75,2.01,0.55,2.22
16.354,-1.81,4.12,-1.35,4.70
16.363,-2.36,6.22,-2.18,7.00
16.374,-1.76,8.48,-2.92,9.14
16.383,-0.60,9.58,-2.85,10.01
16.393,0.88,9.03,-1.93,9.27
16.404,2.10,7.36,-0.28,7.66
16.414,2.24,5.47,2.10,6.27
16.423,1.73,3.30,4.27,5.67
16.433,0.81,1.28,5.44,5.65
16.443,-0.09,-0.11,6.15,6.15
16.453,-0.17,-1.33,5.71,5.87
16.463,0.46,-2.12,4.39,4.90
16.473,0.70,-2.36,3.63,4.39
16.483,0.47,-2.03,2.44,3.21
16.493,0.17,-1.30,1.01,1.65
16.503,-0.31,-0.65,0.21,0.75
16.513,-1.05,-0.44,-0.28,1.17
16.523,-1.92,-0.53,-0.47,2.05
16.533,-2.76,-0.69,-0.01,2.85
16.543,-3.45,-1.01,0.94,3.72
16.553,-3.91,-1.37,2.04,4.61
16.563,-4.01,-1.50,2.87,5.16
16.573,-3.84,-1.60,3.03,5.14
16.583,-3.61,-1.78,2.68,4.84
16.593,-3.57,-2.12,2.41,4.80
16.603,-3.25,-2.31,1.81,4.38
16.613,-2.65,-2.32,1.17,3.71
16.623,-1.83,-2.49,0.67,3.16
16.633,-0.72,-2.20,-0.19,2.32
16.643,0.75,-1.77,-0.59,2.02
16.653,2.47,-1.49,-1.46,3.23
16.663,4.34,-1.87,-3.27,5.74
16.673,5.63,-2.62,-4.10,7.44
16.683,6.22,-3.17,-4.27,8.19
16.693,6.68,-3.58,-5.04,9.10
16.703,7.14,-2.41,-5.86,9.55
16.713,5.96,0.68,-4.41,7.44
16.723,3.81,1.74,-0.94,4.30
16.733,2.23,0.55,-0.50,2.35
16.743,1.31,0.71,-1.97,2.47
16.753,1.05,2.15,-0.93,2.56
16.763,1.07,3.91,1.99,4.52
16.773,0.57,5.22,3.50,6.31
16.783,-1.05,5.86,3.58,6.95
16.793,-2.45,5.75,3.74,7.29
16.803,-2.97,5.29,4.07,7.31
16.813,-3.00,5.08,2.98,6.61
16.823,-2.94,5.04,2.21,6.24
16.833,-2.82,4.55,1.83,5.66
16.843,-2.57,3.46,1.26,4.49
16.853,-2.77,2.22,0.97,3.68
16.863,-3.25,1.38,0.66,3.59
16.873,-3.65,1.20,0.84,3.93
16.883,-4.06,1.91,1.22,4.65
16.893,-4.31,2.78,1.55,5.35
16.903,-4.42,3.19,1.25,5.59
16.913,-4.74,2.89,-0.14,5.55
16.923,-3.76,1.74,-1.98,4.59
16.933,-1.94,0.44,-1.85,2.71
16.943,-0.81,-0.39,-1.02,1.36
16.952,-0.14,-0.35,0.42,0.56
16.963,-0.06,-0.35,1.34,1.39
16.973,-0.46,-0.65,0.90,1.20
16.982,-0.79,-1.17,0.02,1.41
16.993,-0.73,-1.51,-0.58,1.78
17.002,-0.26,-1.57,-0.81,1.79
17.012,0.36,-1.58,-0.65,1.74
17.022,0.87,-1.60,-0.42,1.87
17.032,1.19,-1.67,-0.35,2.08
17.043,1.48,-1.89,-0.44,2.44
17.053,1.75,-2.03,-0.52,2.73
17.063,1.85,-1.91,-0.49,2.71
17.073,1.76,-1.63,-0.53,2.45
17.082,1.62,-1.28,-0.83,2.22
17.092,1.46,-1.10,-1.21,2.19
17.102,1.32,-1.14,-1.55,2.33
17.113,1.14,-1.30,-1.93,2.59
17.122,0.89,-1.45,-2.31,2.87
17.132,0.59,-1.57,-2.66,3.15
17.142,0.32,-1.88,-2.98,3.54
17.152,0.18,-2.33,-3.14,3.91
17.162,0.11,-3.00,-3.03,4.27
17.172,0.10,-3.88,-2.75,4.76
17.182,0.47,-4.68,-2.60,5.38
17.192,1.23,-5.08,-2.73,5.90
17.202,1.92,-4.77,-2.92,5.91
17.212,1.62,-3.50,-3.50,5.21
17.222,-0.00,-1.55,-4.67,4.92
17.232,-1.66,0.29,-6.26,6.48
17.242,-2.33,1.23,-6.71,7.21
17.252,-1.92,0.84,-5.41,5.80
17.262,-0.92,-0.40,-4.32,4.44
17.272,0.58,-1.72,-3.63,4.05
17.282,2.10,-2.81,-2.83,4.51
17.292,2.93,-3.15,-1.91,4.71
17.302,2.88,-2.91,-0.91,4.20
17.312,2.15,-1.97,0.31,2.94
17.322,1.04,-0.31,1.44,1.80
17.332,-0.03,2.28,1.08,2.52
17.342,-1.19,5.39,-0.20,5.52
17.352,-1.94,8.25,-1.15,8.56
17.362,-1.93,10.52,-2.39,10.95
17.373,-1.79,11.90,-1.63,12.15
17.382,-0.18,11.14,-1.28,11.22
17.392,1.62,8.45,-0.33,8.62
17.402,2.31,5.64,1.36,6.25
17.412,2.56,3.69,2.72,5.25
17.422,2.34,2.05,4.31,5.31
17.432,1.74,0.59,5.89,6.17
17.442,1.73,-0.99,5.99,6.31
17.452,2.39,-1.95,4.38,5.35
17.462,2.49,-2.41,4.16,5.41
17.472,1.67,-1.83,3.77,4.51
17.482,0.78,-0.71,2.69,2.89
17.492,0.05,-0.27,1.76,1.78
17.502,-0.71,-0.14,1.02,1.25
17.512,-1.48,0.01,0.37,1.52
17.522,-2.18,-0.07,-0.01,2.18
17.532,-2.81,-0.29,0.26,2.84
17.542,-3.20,-0.59,1.13,3.45
17.552,-3.38,-1.08,2.07,4.10
17.562,-3.45,-1.63,2.68,4.66
17.572,-3.42,-1.57,2.64,4.60
17.582,-3.31,-1.33,2.39,4.29
17.592,-3.06,-1.56,1.93,3.94
17.601,-2.68,-1.77,1.22,3.43
17.612,-2.17,-1.97,0.65,3.00
17.622,-1.45,-2.11,0.16,2.57
17.632,-0.48,-1.90,-0.28,1.98
17.642,0.83,-1.50,-0.41,1.76
17.652,2.50,-1.37,-0.97,3.01
17.662,4.13,-2.01,-2.05,5.03
17.672,5.12,-3.00,-2.37,6.39
17.681,5.33,-3.64,-1.79,6.70
17.691,5.15,-4.23,-2.45,7.10
17.702,4.83,-4.30,-4.56,7.92
17.712,3.88,-1.66,-5.81,7.18
17.721,2.32,1.07,-3.75,4.54
17.731,1.68,0.78,-2.12,2.82
17.741,1.70,-0.16,-0.64,1.82
17.751,1.57,0.23,0.79,1.77
17.761,1.11,2.12,2.57,3.51
17.771,-0.08,3.84,3.96,5.51
17.781,-1.84,4.93,3.27,6.20
17.791,-2.53,6.17,2.91,7.28
17.801,-1.97,8.14,3.56,9.10
17.811,-1.08,9.29,2.95,9.81
17.821,-0.13,8.33,1.44,8.46
17.831,0.15,4.95,0.82,5.02
17.841,-0.86,2.72,0.94,3.00
17.851,-2.44,1.73,1.05,3.17
17.861,-3.27,0.26,1.46,3.59
17.871,-3.67,-0.78,1.46,4.02
17.881,-4.02,-0.65,0.96,4.18
17.891,-4.33,0.03,0.96,4.43
17.901,-4.19,0.92,0.55,4.33
17.911,-4.24,1.86,-0.06,4.62
17.921,-4.06,2.45,-1.56,4.99
17.931,-3.27,1.76,-2.27,4.35
17.941,-1.73,0.93,-1.42,2.43
17.951,-0.46,0.84,-0.34,1.01
17.961,-0.22,0.81,0.80,1.16
17.971,-0.35,0.93,1.18,1.55
17.981,-0.60,0.32,0.49,0.84
17.991,-0.56,-0.88,-0.47,1.14
18.001,-0.19,-1.87,-1.05,2.15
18.011,0.38,-2.45,-1.04,2.69
18.021,0.95,-2.67,-0.50,2.87
18.031,1.49,-2.63,0.03,3.03
18.041,1.79,-2.51,0.18,3.09
18.051,1.78,-2.30,0.17,2.91
18.061,1.43,-1.93,-0.11,2.40
18.071,0.91,-1.52,-0.56,1.86
18.081,0.46,-1.21,-1.08,1.68
18.091,0.25,-0.99,-1.50,1.81
18.101,0.25,-0.96,-1.72,1.98
18.111,0.31,-1.06,-1.90,2.20
18.121,0.27,-1.18,-2.20,2.51
18.131,0.15,-1.47,-2.57,2.97
18.141,0.05,-1.88,-2.84,3.41
18.151,-0.07,-2.17,-3.00,3.70
18.160,-0.16,-2.34,-2.97,3.78
18.171,-0.41,-2.52,-2.36,3.47
18.181,-0.72,-2.75,-1.76,3.34
18.191,-0.56,-3.05,-1.73,3.55
18.200,0.10,-3.45,-1.85,3.91
18.211,0.63,-3.59,-1.97,4.15
18.221,0.52,-3.12,-2.44,3.99
18.231,-0.39,-2.00,-3.64,4.17
18.241,-1.53,-0.56,-5.18,5.43
18.251,-1.91,0.44,-5.94,6.25
18.261,-1.52,0.50,-5.34,5.57
18.271,-0.52,-0.15,-4.68,4.71
18.281,1.03,-0.74,-4.40,4.58
18.291,2.41,-1.31,-3.84,4.72
18.300,3.07,-1.79,-2.73,4.48
18.310,2.97,-1.97,-1.42,3.83
18.320,2.27,-1.58,0.01,2.77
18.330,1.33,-0.38,1.19,1.83
18.340,0.30,1.41,1.50,2.08
18.350,-0.90,3.14,0.97,3.41
18.360,-1.86,5.14,0.36,5.47
18.370,-1.84,7.70,-0.91,7.97
18.380,-1.11,10.01,-1.79,10.23
18.390,0.31,10.95,-1.76,11.09
18.400,1.84,9.75,-0.41,9.93
18.410,2.75,7.21,1.14,7.80
18.420,2.97,4.56,2.44,5.97
18.430,2.69,2.36,3.77,5.20
18.440,1.91,0.54,5.35,5.71
18.450,1.45,-1.11,6.05,6.32
18.460,1.81,-2.29,4.90,5.70
18.470,1.89,-2.85,4.04,5.30
18.480,1.39,-2.46,3.09,4.19
18.490,0.86,-1.66,1.80,2.59
18.500,0.19,-1.09,0.94,1.45
18.510,-0.68,-0.87,0.19,1.12
18.520,-1.58,-0.85,-0.56,1.88
18.530,-2.61,-1.03,-0.67,2.89
18.540,-3.51,-1.34,-0.05,3.76
18.550,-4.26,-1.81,1.12,4.76
18.560,-4.62,-1.91,2.19,5.46
18.570,-4.70,-1.94,2.75,5.78
18.580,-4.52,-1.86,2.84,5.65
18.590,-4.17,-1.85,2.56,5.23
18.600,-3.87,-1.94,2.27,4.89
18.610,-3.42,-1.89,1.60,4.23
18.620,-2.79,-1.85,1.09,3.52
18.630,-1.90,-1.60,0.48,2.53
18.640,-0.79,-1.28,0.03,1.51
18.650,0.76,-0.93,-0.14,1.21
18.660,2.68,-0.73,-0.85,2.91
18.670,4.57,-1.16,-2.10,5.16
18.680,5.53,-1.91,-2.28,6.28
18.690,5.96,-2.53,-2.22,6.85
18.700,6.15,-3.21,-3.23,7.65
18.710,6.06,-2.55,-4.72,8.09
18.720,4.86,0.12,-5.03,6.99
18.730,3.35,1.08,-2.94,4.58
18.740,2.49,0.54,-1.90,3.18
18.750,2.06,0.92,-2.15,3.12
18.760,1.88,2.21,-1.69,3.36
18.770,1.71,3.84,0.03,4.20
18.780,1.14,5.04,1.85,5.49
18.790,-0.12,5.71,2.98,6.44
18.800,-1.70,5.80,2.77,6.65
18.810,-2.65,4.83,2.29,5.97
18.819,-3.10,2.99,2.03,4.76
18.830,-3.25,1.72,1.78,4.09
18.839,-3.33,1.45,2.35,4.33
18.850,-3.07,1.74,3.28,4.82
18.859,-2.62,1.88,2.80,4.27
18.870,-2.50,2.06,2.24,3.94
18.880,-2.57,2.82,1.84,4.24
18.890,-2.75,3.71,1.74,4.93
18.900,-3.08,3.91,1.55,5.21
18.910,-3.57,3.28,1.12,4.97
18.920,-3.80,2.21,0.32,4.41
18.930,-3.71,1.22,-0.59,3.95
18.939,-3.58,-0.01,-1.47,3.87
18.949,-2.65,-0.70,-2.05,3.42
18.960,-1.89,-0.56,-0.78,2.13
18.969,-1.66,0.15,0.05,1.67
18.980,-1.70,0.51,0.42,1.82
18.989,-1.83,0.14,0.50,1.90
19.000,-1.64,-0.27,0.05,1.66
19.010,-0.96,-0.72,-0.42,1.27
19.020,0.08,-1.18,-0.78,1.41
19.029,1.06,-1.52,-0.97,2.09
19.039,1.67,-1.73,-0.90,2.56
19.049,1.96,-1.80,-0.73,2.76
19.059,2.07,-1.90,-0.53,2.86
19.069,2.07,-1.94,-0.41,2.87
19.079,2.00,-1.84,-0.38,2.74
19.089,1.74,-1.71,-0.38,2.47
19.099,1.26,-1.46,-0.52,2.00
19.109,0.98,-1.05,-1.36,1.98
19.119,0.79,-0.69,-1.99,2.25
19.129,0.58,-0.56,-2.49,2.62
19.139,0.25,-0.59,-2.95,3.02
19.149,-0.20,-0.87,-3.19,3.31
19.159,-0.68,-1.47,-3.35,3.72
19.169,-1.09,-2.37,-3.27,4.19
19.179,-1.43,-3.53,-2.92,4.80
19.189,-1.51,-4.76,-2.38,5.53
19.199,-1.24,-5.74,-1.75,6.12
19.209,-0.89,-5.91,-1.25,6.11
19.219,-0.88,-4.84,-1.50,5.14
19.229,-1.56,-2.77,-2.42,4.00
19.239,-2.64,-0.51,-3.55,4.46
19.249,-3.47,1.61,-4.57,5.96
19.259,-3.46,2.94,-4.77,6.59
19.269,-2.33,2.93,-4.47,5.83
19.279,-0.43,1.89,-4.42,4.82
19.289,1.60,0.28,-4.20,4.50
19.299,3.26,-1.02,-3.74,5.06
19.309,4.31,-1.64,-3.48,5.78
19.319,4.73,-1.82,-2.74,5.76
19.329,4.46,-1.88,-1.26,5.00
19.339,3.48,-1.56,0.52,3.85
19.349,2.24,-0.78,2.00,3.10
19.359,0.92,0.54,2.52,2.73
19.369,-0.30,2.57,1.51,3.00
19.379,-1.29,5.16,0.06,5.32
19.389,-1.41,7.12,-1.14,7.34
19.399,-0.80,8.52,-1.57,8.70
19.409,0.16,9.59,-1.36,9.68
19.419,1.67,9.90,-0.69,10.06
19.429,2.52,8.17,1.04,8.61
19.439,2.27,5.18,2.63,6.24
19.449,1.53,2.63,3.42,4.58
19.459,0.65,0.73,4.47,4.57
19.469,0.04,-0.86,5.55,5.62
19.479,0.37,-2.42,5.51,6.03
19.489,1.28,-3.25,3.93,5.26
19.499,1.47,-3.45,3.59,5.19
19.509,1.06,-2.65,3.08,4.20
19.519,0.58,-1.42,2.05,2.56
19.529,0.19,-0.66,1.29,1.46
19.539,-0.34,-0.39,0.65,0.83
19.548,-0.95,-0.34,0.09,1.01
19.559,-1.57,-0.33,0.09,1.60
19.568,-2.03,-0.49,0.57,2.16
19.579,-2.30,-0.90,1.22,2.75
19.588,-2.43,-1.40,1.88,3.38
19.599,-2.47,-1.67,2.32,3.77
19.608,-2.45,-1.61,2.32,3.74
19.619,-2.47,-1.68,2.10,3.65
19.629,-2.32,-1.99,1.69,3.49
19.638,-1.94,-2.30,1.09,3.20
19.649,-1.36,-2.57,0.46,2.94
19.659,-0.52,-2.49,-0.15,2.55
19.668,0.62,-2.12,-0.64,2.30
19.678,2.01,-1.88,-1.29,3.04
19.688,3.50,-1.96,-2.26,4.61
19.698,4.54,-2.27,-2.64,5.72
19.708,4.90,-2.66,-1.93,5.91
19.718,5.16,-3.14,-2.02,6.37
19.728,5.51,-3.08,-3.04,7.01
19.738,5.29,-1.09,-3.90,6.66
19.748,3.78,0.85,-2.87,4.82
19.758,2.40,0.07,-1.16,2.67
19.768,2.02,-0.37,-2.42,3.17
19.778,2.19,1.33,-3.12,4.04
19.788,2.44,3.78,-0.05,4.50
19.798,2.10,5.12,3.46,6.53
19.808,0.85,6.01,4.30,7.44
19.818,-0.82,6.45,2.20,6.87
19.828,-2.28,6.04,1.09,6.55
19.838,-3.51,4.65,1.27,5.96
19.848,-4.00,3.32,1.45,5.40
19.858,-3.88,2.94,2.34,5.40
19.868,-3.28,3.14,2.71,5.29
19.878,-2.50,3.29,2.25,4.70
19.888,-2.21,3.13,1.55,4.13
19.898,-2.55,2.74,1.02,3.88
19.908,-3.03,2.66,1.10,4.18
19.918,-3.47,2.33,1.32,4.38
19.928,-3.69,1.91,1.02,4.28
19.938,-3.73,0.99,0.15,3.86
19.948,-2.90,-0.95,-0.38,3.08
19.958,-1.79,-0.81,0.30,1.99
19.968,-1.91,-0.13,0.20,1.93
19.978,-1.26,0.51,-0.74,1.55
19.988,-0.83,0.92,-0.60,1.38
19.998,-0.84,1.04,0.09,1.34
20.008,-0.82,0.08,0.33,0.88
20.018,-0.30,-1.52,0.15,1.56
20.028,0.02,-2.09,0.13,2.09
20.038,-0.36,-1.25,0.10,1.31
20.048,-0.65,-0.24,-0.23,0.73
20.058,-0.13,-0.33,-1.03,1.09
20.068,0.56,-0.87,-1.28,1.65
20.078,0.97,-1.32,-0.61,1.75
20.088,1.12,-1.61,0.07,1.96
20.098,1.23,-1.71,0.26,2.13
20.108,1.25,-1.65,0.21,2.08
20.118,1.13,-1.43,0.03,1.82
20.128,0.82,-1.16,-0.33,1.46
20.137,0.53,-1.02,-0.79,1.40
20.148,0.18,-0.84,-1.32,1.58
20.158,-0.09,-0.69,-1.92,2.04
20.168,-0.09,-1.15,-2.32,2.59
20.178,-0.27,-1.64,-2.48,2.99
20.188,-0.69,-1.17,-2.62,2.95
20.198,-0.97,-0.87,-2.83,3.11
20.207,-0.97,-1.39,-2.75,3.23
20.217,-0.77,-2.32,-2.39,3.42
20.228,-0.17,-3.99,-1.63,4.31
20.237,0.44,-5.09,-1.20,5.24
20.247,0.57,-4.91,-1.10,5.06
20.257,0.15,-3.52,-1.22,3.73
20.267,-0.51,-1.61,-1.80,2.47
20.278,-1.34,0.19,-3.26,3.53
20.287,-1.94,1.74,-4.67,5.35
20.297,-2.12,2.74,-5.19,6.24
20.308,-1.45,2.47,-4.59,5.41
20.317,-0.15,1.06,-3.36,3.53
20.327,1.40,-0.23,-3.04,3.36
20.337,2.89,-1.01,-3.09,4.35
20.347,3.67,-1.32,-2.72,4.76
20.357,3.46,-1.33,-1.85,4.14
20.368,2.81,-0.85,-0.77,3.04
20.377,2.11,0.12,0.12,2.12
20.387,1.40,0.99,0.85,1.91
20.397,0.44,1.63,1.22,2.09
20.407,-0.64,2.66,1.30,3.03
20.417,-1.63,3.97,1.17,4.45
20.428,-2.08,4.56,0.61,5.05
20.437,-1.83,4.82,-0.21,5.16
20.447,-0.79,5.07,-0.58,5.16
20.457,0.48,4.75,0.05,4.77
20.467,1.47,3.99,0.95,4.36
20.477,2.27,3.11,0.92,3.96
20.487,2.64,1.85,1.36,3.49
20.497,2.49,0.94,2.44,3.61
20.507,1.98,0.32,3.47,4.01
20.517,1.51,-0.16,4.14,4.41
20.527,1.47,0.00,4.24,4.49
20.537,1.41,0.28,4.03,4.27
20.547,0.82,0.57,3.31,3.46
20.557,0.42,0.59,2.10,2.22
20.567,-0.09,0.11,0.93,0.94
20.577,-0.65,-0.51,-0.24,0.86
20.587,-1.04,-1.40,-0.92,1.98
20.597,-1.47,-2.00,-0.90,2.64
20.607,-1.60,-2.12,0.04,2.66
20.617,-1.50,-2.04,1.31,2.85
20.627,-1.61,-1.77,2.23,3.27
20.637,-2.10,-1.74,2.72,3.86
20.647,-2.61,-1.76,2.68,4.13
20.657,-3.09,-1.88,2.40,4.33
20.667,-3.27,-2.21,1.92,4.39
20.677,-3.05,-2.49,1.07,4.08
20.687,-2.37,-2.82,0.82,3.77
20.697,-1.74,-2.42,0.42,3.00
20.707,-1.28,-1.89,0.46,2.33
20.717,-0.77,-1.57,-0.08,1.75
20.727,0.05,-1.50,-0.98,1.79
20.737,1.49,-1.57,-1.52,2.65
20.747,2.72,-1.55,-1.71,3.56
20.757,3.67,-1.41,-1.65,4.26
20.767,4.43,-1.45,-2.11,5.11
20.777,4.25,-1.14,-3.57,5.67
20.787,3.50,-0.71,-4.36,5.63
20.797,3.83,-0.79,-4.52,5.98
20.807,5.20,-0.64,-4.88,7.16
20.817,5.56,0.41,-4.12,6.93
20.827,5.13,0.67,-1.89,5.51
20.837,4.60,-0.11,0.70,4.66
20.847,3.55,-0.63,1.77,4.02
20.857,1.71,0.11,1.35,2.18
20.867,0.11,2.28,0.89,2.45
20.877,-0.72,4.34,0.36,4.41
20.887,-1.45,5.27,0.45,5.48
20.897,-2.20,5.51,0.38,5.94
20.907,-1.86,5.40,0.69,5.76
20.916,-0.87,4.66,1.15,4.88
20.926,-0.03,3.94,1.29,4.15
20.936,-0.02,3.71,2.39,4.42
20.946,-1.09,3.47,3.60,5.12
20.956,-2.52,3.32,4.22,5.93
20.966,-3.23,2.82,3.28,5.40
20.976,-3.23,2.38,1.04,4.14
20.986,-3.68,2.51,0.38,4.47
20.996,-3.74,3.16,1.02,5.00
21.006,-2.85,3.50,1.60,4.79
21.016,-1.57,2.90,1.95,3.83
21.026,-0.87,2.19,1.88,3.01
21.036,-0.66,1.59,0.98,1.98
21.046,-0.71,1.26,0.21,1.46
21.056,-0.79,1.11,0.01,1.36
21.066,-0.77,0.65,-0.24,1.03
21.076,-1.08,0.27,0.10,1.12
21.086,-1.51,-0.23,0.69,1.68
21.096,-1.97,-0.81,-0.04,2.13
21.106,-2.01,-0.89,-0.27,2.22
21.116,-1.65,-1.04,0.27,1.97
21.126,-1.06,-1.18,0.34,1.62
21.136,-0.55,-1.34,0.16,1.46
21.146,-0.02,-1.66,0.06,1.66
21.156,0.41,-1.72,0.45,1.83
21.166,0.55,-1.64,0.79,1.90
21.176,0.49,-1.93,0.49,2.06
21.186,0.34,-2.12,0.22,2.16
21.196,0.29,-2.00,0.18,2.03
21.206,0.20,-1.74,0.16,1.75
21.216,0.26,-1.14,-0.10,1.17
21.226,0.24,-0.77,-0.54,0.97
21.236,0.12,-0.51,-0.76,0.93
21.246,-0.11,-0.22,-0.80,0.84
21.256,-0.45,-0.06,-0.89,1.00
21.266,-0.76,-0.01,-0.70,1.04
21.276,-1.05,-0.09,-0.58,1.20
21.286,-1.40,-0.37,-0.43,1.51
21.296,-1.69,-0.58,-0.29,1.81
21.306,-1.66,-0.41,-0.15,1.72
21.316,-1.58,-0.16,-0.35,1.63
21.326,-1.64,0.13,-0.59,1.75
21.336,-1.77,0.41,-0.53,1.90
21.346,-1.89,0.45,-0.69,2.07
21.356,-2.17,0.51,-0.68,2.33
21.366,-2.60,0.18,-0.60,2.67
21.376,-2.74,-0.09,-0.78,2.85
21.386,-2.50,-0.28,-1.23,2.80
21.396,-2.73,-0.43,-1.58,3.18
21.406,-3.06,-0.33,-2.14,3.74
21.416,-3.80,-0.09,-2.82,4.74
21.426,-2.70,-0.17,-3.58,4.49
21.436,-2.79,0.88,-3.55,4.60
21.446,-2.60,1.49,-3.56,4.65
21.456,-1.63,1.75,-3.27,4.05
21.466,-0.75,1.71,-2.56,3.16
21.476,0.03,1.39,-1.74,2.23
21.486,0.69,1.28,-1.20,1.88
21.495,1.28,1.26,-0.76,1.95
21.505,1.66,1.69,-0.10,2.37
21.516,1.75,2.30,0.31,2.90
21.525,1.49,2.79,0.88,3.29
21.535,1.25,2.80,1.58,3.45
21.546,0.93,2.34,2.19,3.34
21.556,0.48,2.19,2.49,3.35
21.566,0.47,1.84,2.16,2.87
21.576,0.62,0.54,2.65,2.78
21.586,0.54,0.84,3.16,3.32
21.595,0.51,0.72,2.75,2.89
21.605,0.19,0.70,2.97,3.06
21.615,0.09,0.76,2.88,2.98
21.626,0.03,0.78,2.08,2.23
21.635,-0.12,0.87,1.70,1.92
21.645,-0.40,0.76,1.21,1.48
21.655,-0.27,0.48,0.50,0.74
21.665,0.00,-0.14,0.23,0.27
21.675,0.30,-0.78,0.07,0.83
21.685,0.39,-1.09,-0.10,1.16
21.695,0.54,-1.01,0.09,1.14
21.705,0.86,-0.79,0.27,1.20
21.715,0.85,-0.74,0.59,1.27
21.725,0.76,-0.86,0.61,1.30
21.735,0.52,-0.70,0.68,1.11
21.745,-0.02,-0.18,0.84,0.86
21.755,-0.05,0.35,-0.09,0.36
21.765,-0.02,0.95,-0.78,1.23
21.775,-0.23,1.09,-0.79,1.37
21.785,-0.56,0.67,-0.97,1.31
21.795,-0.77,-0.08,-1.09,1.34
21.805,-0.71,-0.85,-0.63,1.28
21.815,-0.62,-1.20,-0.04,1.36
21.825,-0.65,-1.19,-0.04,1.35
21.835,-0.67,-0.85,-0.17,1.10
21.845,-0.78,-0.05,0.30,0.84
21.855,-0.72,0.73,-0.24,1.06
21.865,-0.57,1.30,-0.75,1.61
21.875,-0.16,1.80,-0.90,2.02
21.885,-0.17,2.05,-1.18,2.37
21.895,-0.37,2.09,-0.99,2.35
21.905,-0.25,2.26,-0.97,2.48
21.915,0.04,2.22,-0.45,2.27
21.925,0.73,2.37,0.60,2.55
21.935,1.65,2.57,1.20,3.28
21.945,2.38,2.80,1.23,3.88
21.955,3.17,3.41,0.89,4.74
21.965,3.76,4.11,0.22,5.57
21.975,3.99,4.12,-0.08,5.74
21.985,4.05,3.50,0.33,5.36
21.995,4.12,2.62,0.73,4.94
22.005,4.12,1.77,0.93,4.58
22.015,3.74,1.59,0.98,4.18
22.025,3.66,1.52,0.47,3.99
22.035,3.76,1.57,0.53,4.11
22.045,4.36,2.25,0.12,4.91
22.054,5.30,2.36,0.29,5.81
22.065,6.13,1.64,0.74,6.39
22.075,6.59,0.89,1.45,6.81
22.085,6.96,0.39,1.31,7.09
22.094,7.19,0.13,0.48,7.21
22.105,7.27,0.06,0.10,7.27
22.114,7.18,0.32,-0.51,7.20
22.125,6.94,0.48,-1.48,7.11
22.135,6.09,0.51,-1.94,6.41
22.145,4.90,0.10,-2.37,5.45
22.155,3.86,-0.57,-2.85,4.84
22.165,2.83,-1.23,-2.81,4.18
22.175,2.02,-1.84,-3.06,4.10
22.185,1.47,-1.98,-3.01,3.89
22.195,1.44,-1.18,-3.08,3.60
22.205,1.87,-0.24,-3.32,3.82
22.215,2.05,0.20,-2.98,3.62
22.224,2.00,0.33,-2.67,3.35
22.234,1.81,0.32,-2.10,2.79
22.244,1.15,0.37,-1.28,1.76
22.254,0.10,0.52,-1.13,1.25
22.264,-2.19,2.27,1.50,3.50
22.274,-2.26,-0.26,-3.10,3.85
22.284,-4.38,-0.25,-0.00,4.39
22.294,-4.46,-1.27,0.04,4.64
22.304,-4.42,-1.37,4.17,6.23
22.314,-6.06,-3.13,4.66,8.26
22.324,-1.65,-2.05,0.37,2.65
22.334,-0.38,-0.47,2.43,2.50
22.344,0.55,-1.20,1.73,2.18
22.354,-0.13,0.21,5.74,5.74
22.364,-1.15,0.49,5.43,5.57
22.374,-0.93,-0.99,0.95,1.66
22.384,0.65,-0.21,0.93,1.15
22.394,1.50,-0.02,1.22,1.93
22.404,0.87,-1.32,-0.04,1.58
22.414,-0.18,-1.11,-1.53,1.90
22.424,0.61,1.24,-0.65,1.53
22.434,1.18,3.17,-0.18,3.39
22.444,0.75,4.79,-1.71,5.14
22.454,0.25,3.98,-1.51,4.26
22.464,0.15,1.96,-2.35,3.07
22.474,0.47,1.77,-3.07,3.58
22.484,2.26,2.09,-3.54,4.69
22.494,2.49,2.42,-2.68,4.39
22.504,-0.05,1.28,-0.93,1.59
22.514,0.02,0.15,0.12,0.19
22.524,-0.26,1.69,-0.46,1.77
22.534,0.16,1.92,-1.33,2.34
22.544,0.03,1.22,-0.39,1.28
22.554,0.19,0.36,0.43,0.60
22.564,0.76,-0.27,1.20,1.45
22.574,1.40,-0.59,1.18,1.92
22.584,1.47,-0.45,0.29,1.56
22.594,1.25,0.08,-0.51,1.36
22.604,0.93,0.79,-2.30,2.60
22.614,1.38,1.33,-2.72,3.33
22.624,1.93,1.39,-1.53,2.83
22.634,1.17,0.96,-1.64,2.23
22.644,0.96,0.67,-1.22,1.69
22.654,1.78,-0.61,0.58,1.97
22.664,1.54,-3.01,0.07,3.39
22.674,1.12,-5.45,0.07,5.57
22.684,1.32,-6.71,0.92,6.90
22.694,1.03,-6.15,1.06,6.33
22.703,0.67,-4.64,1.27,4.86
22.714,0.27,-2.84,0.19,2.85
22.724,0.57,-1.11,-0.63,1.41
22.734,1.40,-0.29,-0.50,1.52
22.743,1.27,-0.78,-0.21,1.51
22.754,0.56,-1.57,0.14,1.67
22.764,0.14,-1.51,0.90,1.76
22.773,-0.02,-1.12,1.23,1.66
22.784,-0.24,-1.34,0.92,1.64
22.793,-0.35,-1.84,0.48,1.93
22.803,-0.64,-1.91,1.27,2.38
22.813,-0.82,-1.20,1.77,2.29
22.824,-0.40,-0.98,0.20,1.08
22.834,-0.23,-0.24,1.15,1.19
22.844,-0.37,-0.46,0.97,1.13
22.854,-0.59,-0.94,1.17,1.61
22.864,-0.47,-1.41,0.85,1.71
22.874,-0.30,-1.56,0.24,1.60
22.883,0.25,-1.29,-0.76,1.52
22.894,1.01,-0.93,-1.03,1.71
22.903,1.14,-0.99,-0.83,1.73
22.914,1.03,-1.27,-1.24,2.05
22.923,0.89,-1.08,-1.10,1.78
22.934,0.31,0.32,-0.97,1.07
22.943,-0.31,0.99,-1.33,1.69
22.953,-0.57,1.40,-1.83,2.38
22.963,-0.66,1.05,-1.35,1.84
22.973,-0.60,0.06,-0.88,1.06
22.983,-0.69,-0.13,-0.66,0.96
22.993,-0.86,0.03,-0.18,0.88
23.003,-1.01,-0.31,0.07,1.06
23.013,-1.08,-0.48,0.16,1.19
23.023,-1.02,-0.02,0.06,1.02
23.033,-0.99,0.42,-0.42,1.16
23.043,-0.74,0.26,-0.35,0.86
23.053,-0.45,-0.26,-0.30,0.60
23.063,-0.51,-0.66,-0.15,0.84
23.073,-0.53,-0.70,0.21,0.90
23.083,-0.52,-0.44,0.15,0.70
23.093,-0.64,-0.29,0.15,0.72
23.103,-0.94,-0.37,0.02,1.02
23.113,-1.15,-0.41,0.01,1.22
23.123,-1.09,-0.17,0.02,1.11
23.133,-1.00,0.07,-0.19,1.02
23.143,-1.06,0.25,0.20,1.11
23.153,-1.05,0.64,-0.01,1.23
23.163,-1.09,0.96,-0.07,1.46
23.173,-0.93,0.88,0.02,1.28
23.183,-0.48,0.29,-0.26,0.62
23.193,-0.05,-0.14,-0.35,0.38
23.203,0.19,-0.34,-0.41,0.56
23.213,0.03,-0.37,-0.29,0.47
23.223,-0.09,-0.09,-0.21,0.25
23.233,-0.21,0.10,-0.21,0.31
23.243,-0.13,-0.07,-0.19,0.24
23.253,-0.13,-0.36,-0.01,0.38
23.263,-0.09,-0.36,0.18,0.41
23.273,0.08,-0.26,-0.20,0.34
23.283,0.18,-0.10,-0.40,0.45
23.293,0.01,-0.21,-0.58,0.62
23.303,0.08,-0.24,-0.68,0.72
23.313,0.21,-0.33,-0.86,0.95
23.323,0.29,-0.38,-0.86,0.99
23.333,0.41,-0.44,-0.79,1.00
23.343,0.66,-0.39,-0.74,1.07
23.353,0.26,-0.64,-0.18,0.72
23.363,0.37,-0.52,0.42,0.76
23.373,0.24,-0.78,0.31,0.87
23.383,0.16,-1.21,0.26,1.25
23.393,0.42,-1.14,0.32,1.26
23.403,0.62,-0.79,0.10,1.01
23.413,0.63,-0.58,0.09,0.86
23.422,0.61,-0.43,-0.14,0.76
23.433,0.57,-0.53,-0.43,0.89
23.442,0.66,-0.57,-0.47,0.99
23.453,0.84,-0.37,-0.38,1.00
23.463,0.80,-0.22,-0.54,0.99
23.473,0.71,-0.32,-0.27,0.82
23.483,0.69,-0.53,-0.09,0.87
23.493,0.89,-0.68,-0.11,1.13
23.503,1.12,-0.73,-0.20,1.35
23.513,1.44,-0.71,-0.09,1.60
23.523,1.82,-0.71,0.63,2.05
23.532,2.18,-0.76,0.78,2.44
23.543,1.60,-1.02,-0.48,1.96
23.552,0.91,-0.86,-0.27,1.28
23.563,0.47,0.11,-0.10,0.49
23.573,0.35,1.30,-0.93,1.63
23.582,0.56,1.82,-0.53,1.98
23.592,0.46,1.93,-1.32,2.38
23.603,0.62,1.52,-1.52,2.24
23.612,0.83,0.93,-1.37,1.85
23.622,1.44,0.40,-1.04,1.82
23.632,1.77,-0.22,-0.64,1.90
23.642,1.61,-0.64,0.06,1.74
23.652,1.22,-0.67,0.82,1.62
23.662,0.81,-0.53,0.82,1.27
23.672,0.61,-0.18,0.53,0.83
23.682,0.45,0.32,0.83,1.00
23.692,0.55,0.74,0.87,1.26
23.702,0.57,0.77,0.38,1.04
23.712,0.35,0.48,0.02,0.60
23.722,0.11,0.26,-0.83,0.88
23.732,-0.37,0.80,-1.16,1.46
23.742,-0.73,1.28,-0.74,1.65
23.752,-0.69,1.03,-0.89,1.53
23.762,-0.50,0.43,-0.99,1.19
23.772,-0.52,0.25,-0.82,1.00
23.782,-0.60,0.43,-0.50,0.89
23.792,-0.67,0.34,0.24,0.79
23.802,-0.47,0.04,0.36,0.59
23.812,-0.46,0.17,0.41,0.64
23.822,-0.24,0.30,0.60,0.71
23.832,0.03,0.47,0.63,0.78
23.842,0.33,0.70,0.53,0.94
23.852,0.30,0.69,0.66,1.01
23.862,0.19,0.80,0.60,1.02
23.872,0.43,0.69,-0.77,1.12
23.882,0.03,0.76,-0.50,0.91
23.892,0.10,1.33,0.44,1.40
23.902,0.34,1.71,0.07,1.74
23.912,0.28,1.60,0.30,1.65
23.922,0.45,1.25,0.56,1.44
23.932,0.57,1.11,0.53,1.36
23.942,0.71,1.20,0.49,1.48
23.952,1.08,1.34,0.10,1.72
23.962,1.42,1.20,-0.83,2.03
23.972,1.10,0.58,-1.19,1.72
23.982,0.71,0.71,-1.11,1.50
23.992,0.49,1.18,-1.68,2.11
24.002,0.38,1.42,-1.26,1.94
24.012,0.45,1.34,-0.18,1.43
24.022,0.54,1.20,0.97,1.64
24.032,0.55,1.32,0.94,1.71
24.042,0.55,1.45,1.17,1.94
24.052,0.60,1.46,1.13,1.95
24.062,0.53,1.39,0.42,1.55
24.072,0.40,1.42,-0.20,1.49
24.082,0.25,1.33,-0.21,1.37
24.092,0.05,1.11,-0.02,1.12
24.102,0.01,0.94,0.26,0.98
24.112,0.17,0.76,0.23,0.81
24.122,0.33,0.53,-0.03,0.62
24.131,0.41,0.33,0.11,0.54
24.142,0.22,0.25,0.46,0.57
24.151,-0.07,0.37,0.75,0.84
24.161,-0.32,0.50,0.76,0.96
24.171,-0.64,0.46,1.21,1.44
24.181,-0.92,0.58,1.42,1.79
24.191,-0.99,0.51,1.41,1.80
24.201,-1.16,0.20,1.09,1.60
24.211,-1.16,-0.21,1.12,1.63
24.221,-0.96,-0.41,1.11,1.53
24.231,-1.13,-0.46,0.50,1.32
24.241,-1.40,-0.43,0.40,1.52
24.251,-1.31,-0.39,0.37,1.41
24.261,-0.75,-0.42,0.17,0.88
24.271,-0.64,-0.04,0.21,0.68
24.281,-0.93,0.38,0.51,1.12
24.291,-1.28,0.60,0.91,1.68
24.301,-1.50,0.73,0.92,1.90
24.311,-1.60,0.77,0.79,1.95
24.321,-1.54,0.62,0.55,1.75
24.331,-1.38,0.35,0.12,1.43
24.341,-1.16,0.10,-0.25,1.19
24.351,-0.89,-0.13,-0.56,1.06
24.361,-0.67,-0.20,-0.71,0.99
24.371,-0.56,-0.14,-0.67,0.88
24.381,-0.64,0.03,-0.60,0.88
24.391,-0.76,0.39,-0.50,0.99
24.401,-0.85,0.67,-0.58,1.22
24.411,-0.98,0.85,-0.77,1.51
24.421,-1.15,0.95,-0.94,1.76
24.431,-1.18,0.99,-1.23,1.98
24.441,-1.10,0.83,-1.42,1.98
24.451,-1.01,0.53,-1.47,1.86
24.461,-0.78,0.11,-1.37,1.58
24.471,-0.54,-0.59,-1.25,1.48
24.481,-0.76,-0.93,-1.42,1.86
24.491,-0.72,-0.82,-1.07,1.53
24.501,-1.12,-0.36,-1.18,1.66
24.511,-1.48,0.55,-1.70,2.32
24.521,-0.79,1.88,-1.22,2.37
24.531,-0.34,2.04,-0.69,2.18
24.541,-0.33,1.72,-1.52,2.32
24.551,-0.58,0.64,-1.47,1.71
24.561,-0.83,-0.06,0.12,0.84
24.571,-0.87,-0.13,0.64,1.09
24.581,-0.90,-0.12,0.16,0.92
24.591,-1.07,0.13,-0.63,1.25
24.601,-0.93,0.57,-1.14,1.57
24.611,-0.41,0.81,-0.98,1.33
24.621,-0.09,0.65,-0.51,0.83
24.631,-0.13,0.29,0.09,0.33
24.641,-0.30,0.10,0.34,0.46
24.651,-0.46,0.24,0.35,0.62
24.661,-0.45,0.55,0.47,0.85
24.671,-0.40,0.83,0.51,1.05
24.681,-0.38,1.00,0.42,1.15
24.691,-0.15,0.96,0.33,1.03
24.701,0.17,0.71,0.52,0.90
24.711,0.22,0.60,0.59,0.88
24.721,0.23,0.51,0.93,1.09
24.731,0.27,0.64,1.26,1.43
24.741,0.28,0.71,1.36,1.56
24.751,0.37,0.47,0.65,0.88
24.760,0.64,0.24,0.20,0.71
24.771,0.87,0.16,-0.07,0.89
24.780,1.11,0.09,-0.08,1.12
24.791,1.11,-0.03,0.29,1.15
24.800,1.04,-0.20,1.13,1.55
24.811,0.88,-0.41,1.81,2.05
24.821,0.74,-0.35,2.38,2.51
24.831,0.54,-0.32,3.02,3.08
24.841,0.47,-0.32,3.08,3.13
24.850,0.61,-0.19,2.57,2.65
24.861,0.75,-0.29,1.58,1.77
24.870,0.93,-0.61,0.72,1.32
24.881,1.10,-0.77,0.23,1.36
24.890,1.13,-0.56,0.42,1.33
24.901,1.28,-0.42,0.52,1.44
24.910,1.32,-0.70,-0.00,1.49
24.920,1.04,-0.88,-0.15,1.37
24.930,0.73,-0.83,0.00,1.11
24.940,0.60,-0.74,-0.17,0.97
24.950,0.58,-0.66,-0.20,0.90
24.960,0.63,-0.67,-0.03,0.92
24.970,0.64,-0.69,-0.14,0.95
24.980,0.63,-0.76,-0.42,1.08
24.990,0.51,-0.92,-0.62,1.23
25.000,0.49,-1.18,-0.55,1.39
25.010,0.47,-1.21,-0.38,1.35
25.020,0.50,-1.01,-0.24,1.16
25.030,0.55,-0.78,-0.55,1.10
25.040,0.61,-0.49,-0.82,1.13
25.050,0.60,-0.37,-0.88,1.13
25.060,0.54,-0.24,-0.97,1.14
25.070,0.70,-0.00,-1.49,1.64
25.080,0.79,0.14,-2.27,2.41
25.090,0.57,-0.38,-2.19,2.29
25.100,0.20,-1.27,-1.71,2.14
25.110,-0.25,-1.62,-1.36,2.14
25.120,-0.40,0.22,0.90,1.01
25.130,0.13,0.58,-0.29,0.66
25.140,0.48,-0.01,0.35,0.59
25.150,0.45,-0.29,1.09,1.22
25.160,0.06,-0.13,1.43,1.44
25.170,-0.19,0.26,1.61,1.65
25.180,0.04,-0.30,0.85,0.90
25.190,0.26,-0.98,0.03,1.02
25.200,0.44,-1.09,-1.00,1.54
