time,ax,ay,az,atotal
0.000,-0.70,0.12,-1.33,1.51
0.010,-0.48,0.39,-2.78,2.85
0.020,0.79,0.22,-3.49,3.58
0.030,0.74,0.53,-3.46,3.57
0.040,0.17,1.00,-3.03,3.19
0.050,0.35,0.75,-1.98,2.15
0.060,0.64,0.10,-0.17,0.67
0.070,0.59,-0.07,1.43,1.55
0.080,0.23,0.14,2.59,2.61
0.090,-0.60,0.22,3.36,3.42
0.100,-1.32,0.10,3.28,3.54
0.110,-1.69,-0.30,2.42,2.97
0.120,-1.59,-1.13,1.48,2.45
0.130,-1.51,-1.75,0.92,2.49
0.140,-1.42,-1.83,0.53,2.38
0.150,-1.03,-1.61,0.87,2.10
0.160,-0.63,-1.14,1.47,1.97
0.170,-0.42,-0.75,1.62,1.83
0.180,-0.36,-0.35,1.58,1.65
0.190,-0.66,0.11,1.26,1.43
0.200,-0.81,0.10,0.84,1.17
0.210,-0.86,-0.16,0.82,1.20
0.220,-1.14,-0.49,0.67,1.41
0.230,-1.17,-0.80,0.12,1.42
0.240,-1.12,-0.67,-0.18,1.32
0.250,-1.07,-0.18,-0.17,1.10
0.260,0.30,6.74,0.43,6.76
0.269,0.20,8.26,0.03,8.26
0.280,-1.10,3.42,-0.03,3.60
0.289,0.09,5.12,-0.42,5.13
0.300,0.10,2.33,-1.14,2.60
0.310,-0.17,0.58,-1.82,1.92
0.320,-0.92,-1.04,-2.19,2.59
0.329,-1.28,-2.17,-1.51,2.94
0.339,-1.16,-2.26,-0.08,2.54
0.349,-0.73,-1.37,1.55,2.19
0.359,-0.26,-0.52,2.47,2.54
0.370,-0.14,-0.20,2.64,2.66
0.380,-0.15,-0.25,2.00,2.02
0.389,-0.19,-0.18,0.98,1.02
0.400,-0.16,-0.04,-0.88,0.89
0.409,-0.02,0.20,-2.98,2.99
0.419,-0.35,0.34,-3.53,3.56
0.429,-1.04,0.34,-2.00,2.28
0.439,-1.18,0.32,-0.64,1.38
0.449,-0.83,0.16,-0.01,0.85
0.459,-0.63,0.26,0.54,0.87
0.469,-0.38,0.66,0.62,0.98
0.479,-0.27,0.71,0.73,1.06
0.489,-0.13,0.59,1.35,1.48
0.499,0.13,0.48,1.61,1.68
0.509,0.24,0.47,1.59,1.68
0.519,0.30,0.50,1.60,1.70
0.529,0.24,0.16,1.17,1.21
0.539,0.31,-0.29,0.86,0.96
0.549,0.29,-0.69,2.35,2.46
0.559,0.47,-1.22,2.91,3.19
0.569,0.80,-1.37,2.07,2.61
0.579,0.80,-0.86,1.92,2.26
0.589,0.80,-0.17,1.39,1.61
0.599,1.02,-0.03,0.46,1.12
0.609,1.50,-0.38,0.50,1.63
0.619,1.90,-0.86,1.33,2.47
0.629,1.84,-1.66,1.45,2.87
0.639,1.71,-2.37,-1.55,3.30
0.649,1.54,-3.59,-2.66,4.73
0.659,1.39,-2.98,2.01,3.85
0.669,1.45,-1.01,4.34,4.69
0.679,1.61,-0.01,4.20,4.50
0.689,2.40,0.39,3.32,4.12
0.699,2.23,0.61,1.51,2.76
0.709,2.56,0.25,-0.07,2.57
0.719,2.12,-0.14,0.11,2.12
0.729,-0.12,-0.11,1.95,1.95
0.739,-1.15,-0.47,2.35,2.66
0.749,-2.92,-2.07,0.39,3.60
0.759,-4.92,-5.34,-0.68,7.29
0.769,-3.98,-8.37,1.07,9.33
0.779,-3.95,-8.99,3.59,10.45
0.789,-2.02,-8.74,4.89,10.21
0.799,-0.59,-8.90,5.47,10.47
0.809,-0.42,-7.02,6.37,9.49
0.819,-2.05,-3.62,8.32,9.30
0.829,-5.19,-1.53,8.80,10.33
0.839,-8.90,-0.39,8.28,12.17
0.849,-10.65,0.71,5.63,12.07
0.859,-10.43,1.50,3.98,11.26
0.868,-8.74,2.35,4.26,10.00
0.879,-5.95,3.33,3.17,7.52
0.889,-4.27,4.14,0.51,5.98
0.899,-4.87,4.88,-2.14,7.22
0.909,-6.11,6.91,-4.14,10.11
0.919,-6.11,9.06,-5.12,12.07
0.928,-5.02,9.34,-6.93,12.67
0.939,-3.26,7.88,-6.00,10.43
0.948,-0.79,6.50,-5.01,8.25
0.959,1.36,6.01,-5.53,8.28
0.969,2.21,6.26,-5.90,8.88
0.979,2.39,7.39,-5.57,9.56
0.988,3.05,8.49,-5.89,10.78
0.998,3.93,8.62,-6.26,11.36
1.008,4.61,8.37,-5.44,11.00
1.018,5.72,6.89,-4.59,10.07
1.028,6.76,4.10,-3.24,8.55
1.039,7.60,1.79,-3.22,8.45
1.048,7.83,0.82,-3.36,8.56
1.059,7.57,1.69,-3.99,8.72
1.068,7.41,2.69,-4.50,9.07
1.078,7.55,1.90,-3.29,8.45
1.088,7.58,0.48,-1.69,7.78
1.098,7.68,-0.68,-0.52,7.73
1.108,7.94,-1.78,-0.12,8.14
1.118,7.46,-2.43,0.39,7.86
1.128,7.01,-2.20,0.73,7.38
1.138,6.89,-2.17,0.60,7.24
1.148,6.26,-3.21,0.75,7.07
1.158,5.87,-3.72,1.17,7.05
1.168,6.05,-4.60,1.42,7.73
1.178,6.17,-4.87,2.35,8.20
1.188,5.50,-4.39,2.07,7.34
1.198,3.67,-3.99,1.86,5.73
1.208,1.33,-3.16,3.50,4.90
1.218,-0.14,-3.04,4.59,5.51
1.228,0.44,-4.44,4.38,6.25
1.238,1.16,-5.62,2.78,6.37
1.248,1.00,-5.54,0.67,5.67
1.258,0.69,-4.72,-0.94,4.86
1.268,0.32,-4.11,-0.77,4.20
1.278,0.88,-2.98,0.31,3.12
1.288,1.60,-2.99,1.42,3.67
1.298,1.11,-1.21,2.75,3.21
1.308,1.05,-0.46,2.02,2.32
1.318,1.11,1.07,1.24,1.98
1.328,0.97,1.48,-0.72,1.91
1.338,0.28,2.46,-1.04,2.69
1.348,0.53,2.29,-0.08,2.36
1.358,1.14,1.84,0.87,2.33
1.368,0.77,1.37,1.56,2.21
1.378,0.59,0.62,0.88,1.23
1.388,0.54,0.34,-0.63,0.89
1.398,-0.21,-0.57,-1.85,1.94
1.408,-1.24,-1.40,-2.47,3.10
1.418,-2.60,-1.99,-3.42,4.74
1.428,-4.65,-1.95,-3.62,6.21
1.438,-5.55,-1.45,-2.52,6.26
1.448,-4.81,-1.65,-1.02,5.19
1.458,-0.45,-1.75,-0.75,1.96
1.468,4.29,-0.48,0.52,4.35
1.478,8.72,1.79,-0.38,8.91
1.488,11.85,2.98,-1.73,12.34
1.498,9.93,4.92,-1.31,11.16
1.508,6.82,5.97,0.85,9.10
1.518,4.65,4.89,1.25,6.87
1.528,2.85,4.38,0.51,5.25
1.538,1.40,3.33,-0.29,3.62
1.548,1.25,2.25,-0.91,2.73
1.558,2.04,1.46,-1.16,2.76
1.568,2.86,0.18,-0.89,3.00
1.578,2.82,-0.48,1.47,3.21
1.588,2.56,0.02,4.18,4.90
1.598,1.72,-0.62,4.34,4.71
1.607,-0.65,-1.50,4.08,4.40
1.618,-2.69,-0.61,1.17,3.00
1.628,-4.36,0.61,-3.44,5.59
1.638,-4.82,2.73,-5.14,7.56
1.647,-4.64,4.79,-4.09,7.83
1.658,-4.32,4.56,-1.85,6.54
1.668,-3.44,2.60,-0.90,4.40
1.678,-2.43,0.78,-0.22,2.56
1.687,-0.90,0.63,0.45,1.19
1.698,0.30,-0.28,0.41,0.58
1.707,0.39,-3.43,0.20,3.46
1.718,-0.48,-5.29,0.51,5.33
1.727,-1.50,-5.79,0.82,6.04
1.738,-1.29,-5.44,1.40,5.76
1.747,-1.11,-4.87,1.24,5.15
1.757,-1.19,-5.09,0.34,5.24
1.767,-1.10,-5.82,0.05,5.93
1.777,-0.59,-5.94,0.07,5.97
1.787,-0.10,-6.17,-0.40,6.18
1.797,-1.15,-4.91,-2.72,5.73
1.807,-1.88,-3.94,-4.19,6.05
1.817,-2.81,-0.20,-5.76,6.41
1.827,-3.32,5.44,-5.74,8.58
1.837,-2.71,8.92,-4.66,10.42
1.847,-1.40,8.81,-3.55,9.60
1.857,-0.78,6.98,-1.85,7.26
1.867,0.22,4.71,1.45,4.93
1.877,1.66,3.95,8.04,9.11
1.887,2.74,3.36,4.26,6.07
1.897,2.33,2.54,-4.54,5.70
1.907,1.72,1.67,-6.50,6.93
1.917,0.78,0.66,-4.24,4.36
1.927,-0.30,-0.68,0.44,0.86
1.937,-0.74,-1.33,2.58,2.99
1.947,-0.36,-2.37,2.05,3.15
1.957,-0.12,-3.00,0.66,3.08
1.967,-0.01,-2.32,0.06,2.32
1.977,0.30,-2.12,0.39,2.18
1.987,1.25,-2.15,-0.48,2.54
1.997,1.48,-1.40,-2.29,3.06
2.007,1.37,-0.77,-1.33,2.06
2.017,1.48,-0.70,0.92,1.88
2.027,1.37,-0.25,0.39,1.45
2.037,0.76,0.20,-0.58,0.97
2.047,-0.12,0.30,-1.19,1.24
2.057,-0.80,0.06,-2.02,2.18
2.067,-1.13,0.09,-2.36,2.62
2.077,-1.13,-0.20,-2.30,2.57
2.087,-1.12,-0.93,-1.47,2.07
2.097,-0.77,-1.55,-0.05,1.73
2.107,0.63,-1.71,1.95,2.67
2.117,0.40,0.68,-1.10,1.36
2.127,-0.26,1.56,-2.15,2.67
2.137,-0.86,2.83,-1.21,3.19
2.147,-0.92,3.58,0.16,3.70
2.157,-0.45,3.98,1.19,4.18
2.167,-0.04,3.81,2.63,4.63
2.177,-0.09,1.31,4.38,4.58
2.187,-1.86,-7.00,2.99,7.84
2.197,-3.51,-10.80,0.96,11.39
2.207,-0.02,-7.97,1.56,8.12
2.217,2.69,-6.58,1.97,7.38
2.227,1.50,-6.04,0.83,6.28
2.237,0.86,-4.51,1.20,4.75
2.246,2.16,-4.88,-4.33,6.88
2.257,2.20,-7.83,-6.31,10.30
2.267,3.02,-6.58,4.64,8.60
2.277,3.42,0.90,5.03,6.15
2.287,-0.59,8.16,0.71,8.21
2.297,-3.17,12.70,-1.52,13.17
2.306,-2.74,11.53,-3.34,12.31
2.317,-1.80,7.23,-0.97,7.52
2.327,-0.80,5.27,0.96,5.41
2.337,0.53,4.83,1.20,5.00
2.346,0.83,4.01,0.56,4.13
2.358,1.05,3.08,0.11,3.26
2.366,1.20,1.82,0.33,2.20
2.376,1.02,1.93,1.54,2.67
2.386,0.68,1.75,2.21,2.90
2.396,1.61,0.26,-0.03,1.63
2.406,1.74,0.41,-0.22,1.80
2.417,1.16,0.89,0.35,1.50
2.426,1.26,0.29,0.29,1.32
2.436,1.66,0.42,0.03,1.71
2.446,1.72,0.55,-0.14,1.81
2.456,1.67,0.55,-0.28,1.78
2.466,1.61,0.81,-0.44,1.85
2.476,1.49,0.29,-0.49,1.59
2.486,1.31,-1.28,-0.60,1.92
2.496,0.10,-3.24,-1.42,3.54
2.506,-0.60,-5.85,-1.76,6.13
2.516,-0.53,-7.88,-1.24,7.99
2.526,-0.32,-8.85,-1.33,8.95
2.536,-0.08,-7.54,-2.24,7.87
2.546,0.45,-3.51,-2.77,4.49
2.556,1.39,-1.74,-2.30,3.20
2.566,2.30,-0.93,-1.94,3.15
2.576,3.09,-0.10,-2.25,3.82
2.586,3.80,0.52,-2.63,4.65
2.596,4.41,0.72,-2.75,5.24
2.606,4.95,0.51,-2.50,5.57
2.616,5.34,0.08,-2.39,5.85
2.626,5.58,-0.76,-3.15,6.45
2.636,5.66,-2.02,-3.88,7.15
2.646,3.67,-1.75,-2.69,4.88
2.656,0.78,0.35,-2.61,2.75
2.666,-1.21,3.36,-1.07,3.73
2.676,-3.08,6.12,1.07,6.94
2.686,-2.64,5.89,0.24,6.46
2.696,-2.17,3.01,-1.69,4.07
2.706,-2.06,1.18,0.03,2.37
2.716,-1.72,0.27,0.91,1.96
2.726,-1.59,0.07,0.99,1.87
2.736,-2.24,0.55,1.41,2.71
2.746,-3.08,1.42,2.45,4.19
2.756,-3.38,2.35,2.81,4.99
2.766,-3.22,3.18,1.98,4.94
2.776,-2.77,3.76,0.99,4.77
2.786,-2.18,3.81,0.71,4.44
2.796,-1.92,2.82,1.15,3.60
2.806,-1.58,1.54,0.73,2.33
2.816,-1.02,0.74,0.61,1.40
2.826,-0.63,-0.17,0.99,1.18
2.836,-0.31,-1.26,0.13,1.31
2.845,-0.38,-2.14,-0.72,2.29
2.856,-0.92,-2.44,-0.92,2.76
2.866,-1.48,-2.17,-0.56,2.68
2.876,-1.46,-1.52,-0.02,2.11
2.886,-0.96,-1.17,0.43,1.57
2.896,-0.42,-1.32,0.51,1.48
2.906,0.09,-1.52,0.27,1.55
2.916,0.45,-1.64,-0.29,1.73
2.925,0.78,-1.45,-1.09,1.98
2.936,1.22,-1.04,-1.32,2.08
2.946,1.31,-0.91,-0.28,1.62
2.956,1.48,-0.58,-0.09,1.59
2.966,1.52,-0.24,-0.16,1.54
2.976,1.33,-0.09,-0.17,1.34
2.986,1.07,-0.13,-0.37,1.14
2.995,0.74,-0.27,-0.60,0.99
3.006,0.30,-0.51,-0.64,0.87
3.016,-0.02,-0.78,-0.92,1.21
3.025,-0.13,-0.88,-1.63,1.85
3.036,-0.30,-0.79,-2.18,2.34
3.045,-0.59,-0.74,-2.70,2.86
3.056,-0.90,-0.70,-3.21,3.41
3.065,-1.11,-0.69,-3.35,3.59
3.075,-1.20,-0.81,-3.13,3.45
3.085,-1.29,-1.32,-2.78,3.34
3.095,-1.11,-2.22,-2.41,3.47
3.105,-0.48,-3.32,-2.21,4.02
3.115,0.34,-4.23,-1.78,4.60
3.125,1.03,-4.52,-1.52,4.88
3.135,1.42,-3.88,-1.90,4.54
3.145,1.24,-2.63,-2.87,4.09
3.155,0.34,-1.15,-4.10,4.27
3.165,-0.43,0.24,-5.53,5.55
3.175,-0.62,0.90,-6.30,6.39
3.185,-0.43,0.55,-5.24,5.29
3.195,0.21,-0.18,-4.66,4.67
3.205,1.38,-1.34,-3.95,4.39
3.215,2.69,-2.22,-2.67,4.39
3.225,3.59,-2.30,-1.59,4.55
3.235,3.77,-1.69,-1.13,4.28
3.245,3.02,-0.60,-0.57,3.14
3.255,1.63,0.96,0.25,1.91
3.265,0.06,2.85,0.89,2.98
3.275,-1.51,5.23,0.15,5.45
3.285,-2.74,7.16,-1.10,7.74
3.295,-2.91,8.57,-1.91,9.25
3.305,-2.35,9.20,-1.46,9.61
3.315,-1.35,8.69,-0.28,8.80
3.325,-0.39,7.52,0.55,7.55
3.335,0.60,6.14,1.17,6.28
3.345,1.11,4.52,2.30,5.20
3.355,0.67,2.93,3.60,4.69
3.365,-0.22,1.31,4.04,4.25
3.375,-0.81,0.09,3.67,3.76
3.385,-0.79,-0.53,3.19,3.32
3.395,-0.42,-1.30,3.37,3.64
3.405,0.39,-1.92,3.92,4.38
3.415,1.51,-1.89,3.68,4.41
3.425,1.94,-1.67,2.68,3.70
3.435,1.58,-1.45,1.60,2.67
3.445,0.66,-1.37,1.23,1.96
3.455,-0.17,-1.06,1.13,1.56
3.465,-0.90,-0.97,0.83,1.56
3.475,-1.56,-1.24,0.77,2.14
3.485,-2.12,-1.57,1.09,2.85
3.495,-2.49,-1.87,1.62,3.51
3.505,-2.66,-2.06,2.02,3.93
3.515,-2.73,-1.98,2.25,4.05
3.525,-2.77,-1.83,2.36,4.07
3.535,-2.73,-1.71,2.29,3.95
3.545,-2.60,-1.75,2.00,3.72
3.555,-2.31,-1.89,1.59,3.38
3.565,-1.70,-1.88,1.16,2.79
3.575,-0.83,-1.71,0.79,2.06
3.585,0.34,-1.29,0.52,1.44
3.595,1.67,-0.72,0.46,1.88
3.605,3.09,-0.22,0.37,3.12
3.615,4.52,-0.28,-0.26,4.54
3.625,5.66,-1.20,-1.35,5.94
3.635,6.06,-2.49,-2.28,6.94
3.645,5.71,-3.17,-2.79,7.10
3.654,4.98,-3.66,-4.15,7.45
3.665,4.18,-2.36,-5.94,7.63
3.675,3.27,0.19,-5.76,6.63
3.685,2.29,1.02,-2.79,3.75
3.695,1.71,0.75,-1.05,2.14
3.704,1.31,1.55,-1.38,2.45
3.715,1.04,3.31,-0.75,3.55
3.724,0.74,5.10,0.37,5.16
3.735,-0.36,6.09,1.23,6.23
3.744,-2.12,6.34,2.71,7.22
3.755,-3.62,6.26,4.11,8.31
3.764,-4.27,5.57,3.60,7.88
3.774,-4.35,4.24,1.93,6.38
3.784,-4.49,2.78,1.39,5.45
3.795,-4.49,1.85,2.55,5.49
3.804,-3.77,1.80,2.85,5.06
3.814,-2.69,1.88,1.48,3.60
3.824,-2.29,1.56,0.03,2.77
3.834,-2.71,1.13,-0.10,2.94
3.844,-3.29,0.92,0.55,3.46
3.854,-3.81,1.23,1.91,4.43
3.864,-3.98,1.71,2.15,4.84
3.874,-3.88,1.68,0.17,4.24
3.884,-3.30,1.12,-0.58,3.53
3.894,-2.12,-0.12,0.28,2.14
3.904,-0.92,-0.91,0.29,1.33
3.914,-0.53,-1.00,-0.02,1.14
3.924,-0.72,-1.14,-0.11,1.36
3.934,-0.89,-1.63,-0.23,1.87
3.944,-0.59,-1.94,-0.26,2.05
3.954,-0.11,-1.99,0.00,1.99
3.964,0.42,-1.75,-0.18,1.81
3.974,0.80,-1.60,-0.02,1.79
3.984,1.37,-1.16,-0.01,1.80
3.994,1.63,-0.82,-0.15,1.83
4.004,1.63,-0.68,-0.08,1.76
4.014,1.60,-0.53,-0.10,1.69
4.024,1.56,-0.45,-0.28,1.65
4.034,1.50,-0.39,-0.44,1.61
4.044,1.43,-0.37,-0.65,1.62
4.054,1.35,-0.51,-0.98,1.74
4.064,1.26,-0.76,-1.42,2.05
4.074,1.14,-1.02,-1.77,2.34
4.084,0.90,-1.18,-2.05,2.53
4.094,0.63,-1.24,-2.38,2.75
4.104,0.42,-1.16,-2.74,3.01
4.114,0.22,-1.00,-3.20,3.36
4.124,-0.04,-0.83,-3.25,3.35
4.134,-0.35,-0.86,-2.87,3.02
4.144,-0.49,-1.44,-2.38,2.83
4.154,-0.33,-2.54,-1.95,3.22
4.164,0.20,-3.83,-1.61,4.16
4.174,0.93,-4.75,-1.78,5.16
4.184,1.02,-4.58,-2.51,5.32
4.194,-0.21,-3.29,-3.44,4.77
4.204,-2.02,-1.55,-5.23,5.82
4.214,-3.10,0.16,-7.17,7.82
4.224,-2.81,1.18,-7.13,7.75
4.234,-1.55,0.63,-5.75,5.99
4.244,0.52,-0.74,-4.82,4.91
4.253,2.93,-1.82,-4.22,5.45
4.264,4.85,-2.29,-3.38,6.34
4.274,5.68,-2.35,-2.63,6.68
4.284,5.13,-2.04,-1.28,5.67
4.294,3.63,-1.04,0.46,3.80
4.303,1.93,0.90,1.65,2.69
4.314,0.22,3.35,1.70,3.76
4.324,-1.83,5.45,0.19,5.75
4.334,-3.56,6.96,-0.92,7.87
4.344,-4.00,8.25,-1.80,9.34
4.353,-3.61,8.97,-1.78,9.83
4.364,-2.36,9.02,-1.76,9.49
4.374,-0.61,7.98,-0.34,8.01
4.383,0.66,5.82,2.23,6.27
4.393,0.81,3.74,3.67,5.30
4.403,0.79,1.76,4.25,4.67
4.414,0.83,0.03,4.13,4.21
4.423,0.75,-1.32,4.67,4.91
4.433,1.31,-1.70,4.84,5.29
4.443,1.55,-1.83,4.65,5.23
4.453,1.33,-1.67,3.99,4.53
4.463,1.14,-1.32,2.90,3.38
4.473,0.65,-0.96,1.85,2.19
4.483,-0.18,-0.81,1.01,1.30
4.493,-0.99,-0.76,0.40,1.31
4.503,-1.77,-0.83,0.25,1.97
4.513,-2.44,-1.12,0.72,2.78
4.523,-2.89,-1.54,1.56,3.63
4.533,-3.19,-1.86,2.25,4.33
4.543,-3.39,-1.92,2.58,4.68
4.553,-3.42,-1.86,2.53,4.64
4.563,-3.28,-1.94,2.24,4.42
4.573,-3.02,-2.07,1.68,4.03
4.583,-2.62,-2.10,1.14,3.55
4.593,-1.93,-2.02,0.73,2.89
4.603,-0.84,-1.79,0.41,2.02
4.613,0.63,-1.17,0.43,1.39
4.623,2.35,-0.61,0.23,2.44
4.633,4.11,-0.83,-0.88,4.28
4.643,5.52,-1.51,-2.12,6.10
4.653,6.06,-2.11,-2.57,6.92
4.663,6.00,-2.51,-3.16,7.23
4.673,5.58,-2.22,-4.71,7.63
4.683,4.34,0.44,-6.04,7.45
4.693,3.18,2.08,-4.43,5.84
4.703,2.44,1.45,-1.41,3.17
4.713,1.93,1.03,-1.15,2.48
4.723,1.31,1.87,-1.35,2.66
4.733,0.81,3.35,0.08,3.45
4.743,0.30,4.63,1.71,4.95
4.753,-1.11,5.13,2.44,5.79
4.763,-3.24,5.09,3.12,6.80
4.773,-4.58,4.92,3.10,7.40
4.783,-4.65,4.50,2.71,7.02
4.793,-4.21,3.47,2.29,5.92
4.803,-3.84,2.37,1.49,4.75
4.813,-3.48,1.62,1.34,4.07
4.823,-2.94,1.45,1.37,3.55
4.833,-2.40,1.69,1.08,3.13
4.843,-2.41,2.06,0.52,3.21
4.853,-3.11,2.14,0.74,3.85
4.863,-3.72,1.82,1.26,4.33
4.873,-3.86,1.64,1.33,4.40
4.883,-4.01,1.37,1.02,4.36
4.893,-4.15,0.64,-0.36,4.22
4.902,-2.81,-0.40,-1.16,3.07
4.913,-1.39,-0.99,-0.56,1.79
4.922,-0.81,-0.56,-0.08,0.98
4.933,-0.70,-0.48,0.86,1.20
4.943,-1.03,-1.22,0.08,1.60
4.953,-1.18,-1.40,-0.62,1.94
4.963,-0.95,-1.44,-0.42,1.78
4.972,-0.37,-1.47,-0.33,1.56
4.983,0.42,-1.32,-0.43,1.45
4.992,1.26,-1.10,-0.67,1.81
5.003,1.87,-0.98,-0.59,2.19
5.013,2.21,-0.91,-0.34,2.42
5.023,2.28,-0.91,-0.08,2.45
5.033,2.19,-0.88,0.06,2.36
5.042,2.01,-0.80,0.07,2.17
5.052,1.76,-0.70,-0.06,1.89
5.062,1.42,-0.56,-0.41,1.58
5.072,1.06,-0.40,-0.89,1.44
5.082,0.65,-0.40,-1.37,1.57
5.092,0.23,-0.61,-1.94,2.05
5.102,-0.19,-0.96,-2.63,2.80
5.112,-0.51,-1.40,-3.40,3.71
5.122,-0.65,-2.02,-3.81,4.37
5.132,-0.71,-2.80,-3.61,4.62
5.142,-0.77,-3.66,-3.24,4.95
5.152,-0.65,-4.44,-3.17,5.50
5.162,-0.22,-5.06,-2.97,5.87
5.172,0.10,-5.37,-2.51,5.93
5.182,0.05,-4.82,-2.68,5.52
5.192,-0.71,-3.28,-3.26,4.68
5.202,-2.23,-1.35,-4.09,4.85
5.212,-3.56,0.44,-4.95,6.11
5.222,-3.73,1.64,-5.35,6.73
5.232,-2.36,1.97,-4.86,5.75
5.242,0.22,1.12,-4.42,4.56
5.252,3.03,-0.13,-4.37,5.32
5.262,5.23,-0.87,-4.46,6.92
5.272,6.19,-1.35,-4.07,7.53
5.282,5.86,-1.77,-2.80,6.73
5.292,4.54,-1.54,-0.62,4.83
5.302,2.59,-0.35,1.69,3.11
5.312,0.58,1.54,2.86,3.30
5.322,-1.51,3.71,1.66,4.34
5.332,-3.31,5.74,-0.40,6.64
5.342,-3.95,7.80,-1.92,8.95
5.352,-3.59,9.79,-2.35,10.69
5.362,-2.59,11.05,-2.23,11.57
5.372,-0.70,10.72,-1.58,10.86
5.382,1.04,8.06,0.51,8.14
5.392,1.76,4.83,2.14,5.57
5.402,1.59,2.39,3.75,4.72
5.412,1.26,0.46,5.49,5.65
5.422,1.15,-1.27,6.08,6.32
5.432,1.63,-2.24,4.66,5.42
5.442,1.90,-2.72,4.23,5.38
5.452,1.49,-2.65,4.27,5.24
5.462,1.02,-1.96,3.56,4.19
5.472,0.54,-1.11,2.83,3.08
5.482,-0.06,-0.72,1.96,2.09
5.492,-0.62,-0.59,0.91,1.25
5.502,-1.22,-0.53,0.25,1.35
5.512,-1.80,-0.72,0.32,1.96
5.522,-2.31,-1.14,0.80,2.70
5.532,-2.74,-1.75,1.44,3.56
5.541,-3.03,-2.33,2.01,4.32
5.552,-3.17,-2.66,2.29,4.73
5.562,-3.11,-2.62,2.35,4.70
5.572,-2.92,-2.70,2.16,4.53
5.582,-2.76,-2.82,1.86,4.36
5.592,-2.42,-2.87,1.42,4.02
5.602,-1.80,-2.89,0.90,3.52
5.612,-0.89,-2.56,0.29,2.73
5.622,0.29,-1.84,0.01,1.86
5.632,1.83,-1.17,-0.28,2.19
5.641,3.68,-0.85,-1.35,4.01
5.652,5.55,-1.00,-2.53,6.18
5.661,6.74,-1.36,-2.85,7.45
5.672,7.43,-1.87,-3.37,8.37
5.681,7.79,-1.99,-5.06,9.50
5.691,6.95,0.37,-6.14,9.28
5.702,4.72,2.79,-4.14,6.87
5.711,3.22,1.90,-1.40,4.00
5.721,2.58,1.83,-1.71,3.60
5.732,1.87,3.76,-1.46,4.45
5.741,1.09,5.76,0.44,5.88
5.752,-0.18,6.61,1.90,6.88
5.761,-2.35,6.49,3.01,7.53
5.771,-4.49,5.51,3.50,7.92
5.781,-5.47,3.79,2.35,7.06
5.791,-5.62,1.18,1.68,5.99
5.801,-5.41,-0.29,1.81,5.71
5.811,-4.94,-0.03,2.61,5.58
5.821,-4.04,0.83,2.53,4.84
5.831,-3.03,1.77,1.26,3.73
5.841,-2.58,2.82,0.30,3.84
5.851,-2.87,3.83,0.64,4.83
5.861,-3.14,4.37,1.42,5.56
5.871,-3.37,4.01,1.78,5.53
5.881,-3.16,2.66,1.20,4.30
5.891,-2.44,0.76,0.15,2.56
5.901,-1.67,-0.51,-0.07,1.75
5.911,-0.94,-0.98,-0.10,1.36
5.921,-0.08,-0.89,-0.42,0.99
5.931,0.28,-0.48,0.01,0.55
5.941,-0.00,-0.10,0.68,0.69
5.951,-0.32,-0.38,0.89,1.01
5.961,-0.39,-1.04,0.49,1.22
5.971,-0.20,-1.57,-0.01,1.58
5.981,-0.15,-1.92,0.37,1.96
5.991,0.15,-1.96,0.33,1.99
6.001,0.53,-1.68,-0.06,1.76
6.011,0.89,-1.30,-0.51,1.65
6.021,1.01,-1.00,-0.31,1.45
6.031,0.80,-0.76,0.03,1.10
6.041,0.66,-0.55,-0.48,0.99
6.051,0.72,-0.48,-0.57,1.04
6.061,0.83,-0.50,-0.49,1.09
6.071,0.95,-0.55,-0.73,1.32
6.081,1.04,-0.68,-1.16,1.70
6.091,0.99,-0.92,-1.65,2.13
6.101,0.72,-1.18,-2.00,2.43
6.111,0.39,-1.51,-2.53,2.97
6.121,0.17,-1.74,-3.08,3.54
6.131,0.11,-1.88,-3.42,3.90
6.141,0.15,-2.32,-3.43,4.14
6.151,0.31,-3.22,-3.13,4.51
6.161,0.82,-4.21,-3.03,5.26
6.171,1.53,-5.05,-2.95,6.04
6.181,2.15,-5.38,-3.35,6.69
6.191,1.93,-4.60,-4.21,6.53
6.201,0.57,-2.92,-5.29,6.07
6.211,-1.31,-0.86,-6.39,6.58
6.221,-2.49,0.80,-6.58,7.08
6.231,-2.00,1.37,-5.82,6.30
6.241,-0.24,0.92,-5.14,5.23
6.251,2.13,0.05,-4.63,5.10
6.261,4.29,-0.41,-4.36,6.13
6.271,5.36,-0.68,-3.85,6.64
6.281,5.17,-0.90,-2.52,5.82
6.290,3.97,-0.38,-0.36,4.01
6.301,2.51,1.32,1.49,3.20
6.311,0.83,2.96,2.14,3.74
6.321,-1.36,4.27,1.19,4.64
6.331,-3.53,6.02,0.00,6.98
6.340,-4.53,8.14,-1.31,9.41
6.350,-4.22,9.69,-2.26,10.81
6.360,-3.09,10.51,-2.12,11.16
6.371,-1.12,9.68,-0.95,9.79
6.380,0.59,7.08,1.71,7.31
6.390,0.82,4.25,3.42,5.52
6.401,0.47,1.84,4.12,4.53
6.410,0.32,-0.18,4.91,4.92
6.420,0.43,-1.97,5.32,5.69
6.430,1.29,-2.36,4.76,5.47
6.441,2.08,-2.60,4.25,5.40
6.451,1.96,-2.79,4.12,5.35
6.460,1.75,-2.18,3.39,4.39
6.470,1.12,-1.53,2.53,3.16
6.480,0.07,-1.18,1.57,1.97
6.490,-0.91,-0.95,0.61,1.45
6.500,-1.73,-1.06,0.33,2.05
6.510,-2.27,-1.44,0.62,2.76
6.520,-2.59,-1.93,1.35,3.50
6.530,-2.80,-2.42,2.08,4.25
6.540,-3.05,-2.72,2.44,4.76
6.550,-3.24,-2.80,2.48,4.94
6.560,-3.24,-2.95,2.32,4.96
6.570,-2.91,-3.12,2.12,4.76
6.580,-2.32,-3.20,1.70,4.30
6.590,-1.49,-3.02,1.13,3.55
6.600,-0.39,-2.46,0.64,2.58
6.610,0.96,-1.86,0.50,2.15
6.620,2.69,-1.34,-0.24,3.01
6.630,4.65,-1.50,-2.03,5.29
6.640,6.23,-1.76,-3.18,7.21
6.650,7.02,-1.83,-3.49,8.05
6.660,7.07,-2.44,-5.17,9.09
6.670,6.70,-1.39,-6.94,9.75
6.680,4.89,2.87,-5.77,8.09
6.690,2.73,3.72,-2.22,5.12
6.700,1.90,2.03,-1.51,3.16
6.710,1.65,2.36,-1.33,3.18
6.720,1.55,3.89,0.75,4.25
6.730,1.14,5.42,1.90,5.86
6.740,-0.21,6.33,2.01,6.65
6.750,-2.60,6.63,3.78,8.06
6.760,-4.43,6.53,4.50,9.09
6.770,-5.24,5.69,3.38,8.44
6.780,-5.48,4.20,2.05,7.20
6.790,-5.47,3.22,2.69,6.89
6.800,-4.81,3.24,3.07,6.56
6.810,-3.85,3.46,2.00,5.55
6.820,-3.42,3.29,0.34,4.76
6.830,-3.64,2.85,-0.71,4.68
6.840,-3.95,2.20,-0.31,4.53
6.850,-4.36,1.72,1.54,4.93
6.860,-4.59,1.40,2.42,5.37
6.870,-4.64,0.59,0.94,4.77
6.879,-4.23,-0.26,-0.93,4.34
6.890,-2.97,-0.90,-1.15,3.31
6.900,-1.61,-1.00,-0.41,1.94
6.910,-0.93,-0.64,0.18,1.15
6.920,-0.69,-0.73,0.10,1.01
6.930,-0.74,-1.65,-0.63,1.92
6.940,-0.72,-1.98,-0.41,2.15
6.950,-0.46,-2.02,-0.04,2.07
6.959,0.13,-2.13,-0.25,2.15
6.969,1.01,-1.94,-0.42,2.23
6.980,1.88,-1.64,-0.51,2.55
6.990,2.44,-1.49,-0.67,2.93
7.000,2.50,-1.51,-0.32,2.94
7.009,2.30,-1.58,-0.15,2.79
7.019,2.12,-1.50,-0.29,2.62
7.030,1.96,-1.26,-0.38,2.36
7.040,1.77,-0.95,-0.68,2.12
7.050,1.62,-0.65,-1.23,2.13
7.059,1.52,-0.45,-1.97,2.53
7.070,1.32,-0.39,-2.65,2.99
7.079,0.93,-0.53,-3.11,3.28
7.089,0.40,-0.92,-3.41,3.55
7.100,-0.05,-1.37,-3.45,3.72
7.109,-0.33,-1.99,-3.24,3.81
7.119,-0.31,-2.99,-2.87,4.16
7.129,-0.05,-4.19,-2.41,4.84
7.139,0.34,-5.12,-1.88,5.47
7.150,0.66,-5.54,-1.90,5.90
7.159,0.48,-4.99,-2.43,5.57
7.169,-0.61,-3.41,-3.26,4.75
7.179,-2.26,-1.46,-4.38,5.14
7.189,-3.59,0.51,-5.45,6.54
7.199,-3.80,1.93,-5.44,6.91
7.209,-2.67,1.95,-4.67,5.72
7.219,-0.43,0.97,-4.37,4.49
7.229,2.19,-0.02,-4.26,4.79
7.239,4.16,-0.51,-4.29,6.00
7.249,4.96,-0.77,-3.84,6.32
7.259,4.81,-0.91,-2.40,5.45
7.269,3.98,-0.54,0.09,4.02
7.279,2.60,0.79,2.26,3.53
7.289,0.94,2.66,2.68,3.89
7.299,-0.96,4.28,1.14,4.53
7.309,-2.49,5.54,-0.43,6.09
7.319,-3.22,6.74,-1.16,7.56
7.329,-2.87,7.98,-1.93,8.70
7.339,-2.00,8.87,-1.80,9.27
7.349,-0.61,8.63,-1.41,8.76
7.359,0.59,6.84,0.70,6.91
7.369,0.68,4.55,3.10,5.55
7.379,-0.06,2.47,4.48,5.12
7.389,-0.37,0.63,4.61,4.67
7.399,-0.40,-1.12,4.60,4.75
7.409,-0.01,-2.16,4.99,5.44
7.419,0.99,-2.19,4.59,5.18
7.429,1.73,-2.14,4.31,5.11
7.439,1.92,-2.06,3.70,4.65
7.449,1.96,-1.62,2.68,3.69
7.459,1.54,-1.16,1.73,2.59
7.469,0.53,-0.85,0.79,1.27
7.479,-0.60,-0.64,0.15,0.89
7.489,-1.56,-0.71,0.47,1.77
7.499,-2.26,-1.01,1.19,2.75
7.509,-2.71,-1.53,2.00,3.70
7.519,-3.00,-2.07,2.46,4.40
7.529,-3.13,-2.28,2.43,4.57
7.539,-3.12,-2.33,2.17,4.46
7.549,-3.07,-2.48,1.87,4.37
7.559,-2.82,-2.62,1.37,4.08
7.569,-2.10,-2.58,0.82,3.43
7.579,-0.95,-2.37,0.25,2.56
7.589,0.36,-1.74,-0.13,1.79
7.599,1.95,-1.06,-0.42,2.26
7.609,3.86,-0.95,-1.56,4.27
7.619,5.55,-1.32,-2.70,6.31
7.628,6.52,-1.67,-2.61,7.22
7.639,6.86,-2.10,-2.90,7.74
7.649,6.79,-2.14,-4.51,8.43
7.659,5.97,-0.13,-5.26,7.96
7.669,3.76,2.02,-3.56,5.56
7.679,2.02,1.01,-1.67,2.81
7.688,1.09,0.31,-1.84,2.16
7.698,0.32,1.10,-2.07,2.37
7.709,-0.30,2.62,0.10,2.64
7.719,-1.25,4.30,1.84,4.84
7.729,-2.74,5.23,1.89,6.20
7.739,-4.22,5.65,2.34,7.43
7.749,-4.56,6.19,3.13,8.30
7.758,-3.98,6.14,2.54,7.74
7.769,-2.93,4.90,1.60,5.93
7.778,-2.33,2.58,1.42,3.76
7.789,-2.54,1.41,1.55,3.29
7.798,-2.90,1.54,1.60,3.65
7.808,-3.10,1.73,1.34,3.79
7.818,-3.59,1.70,1.04,4.10
7.828,-3.93,1.63,1.20,4.42
7.838,-3.83,1.97,1.07,4.43
7.848,-3.80,2.50,1.22,4.71
7.858,-4.18,2.46,1.38,5.04
7.868,-4.73,1.69,1.05,5.14
7.878,-3.30,0.02,-0.12,3.30
7.888,-1.44,-0.62,-0.56,1.67
7.898,-0.73,-0.50,0.38,0.96
7.908,-0.72,-0.51,0.42,0.98
7.918,-0.96,-0.91,0.24,1.34
7.928,-0.78,-1.40,0.37,1.64
7.938,-0.83,-2.23,-0.39,2.41
7.948,-0.80,-2.08,-0.40,2.27
7.958,-0.51,-1.43,-0.20,1.53
7.968,0.16,-0.97,-0.32,1.04
7.978,0.86,-0.82,-0.53,1.30
7.988,1.41,-0.89,-0.62,1.78
7.998,1.69,-1.10,-0.43,2.06
8.008,1.75,-1.23,-0.23,2.16
8.018,1.65,-1.20,-0.15,2.04
8.028,1.42,-1.01,-0.22,1.76
8.038,1.21,-0.76,-0.60,1.55
8.048,1.02,-0.68,-1.04,1.61
8.058,0.89,-0.74,-1.71,2.06
8.068,0.66,-0.90,-2.40,2.65
8.078,0.33,-1.27,-2.98,3.25
8.088,0.07,-1.69,-3.47,3.86
8.098,-0.04,-2.18,-3.71,4.30
8.108,-0.07,-2.81,-3.37,4.39
8.118,-0.00,-3.66,-2.83,4.62
8.128,0.33,-4.40,-2.31,4.98
8.138,0.69,-4.85,-2.04,5.30
8.148,0.93,-4.85,-2.45,5.51
8.158,0.41,-3.65,-3.44,5.03
8.168,-1.17,-1.60,-4.43,4.85
8.178,-3.02,0.56,-5.44,6.25
8.188,-4.02,2.25,-6.03,7.59
8.198,-3.40,2.43,-5.29,6.75
8.208,-1.58,0.92,-4.53,4.89
8.218,0.96,-1.05,-4.34,4.56
8.228,3.39,-2.15,-4.26,5.85
8.238,4.95,-2.41,-4.01,6.82
8.248,5.49,-2.47,-3.40,6.91
8.258,4.94,-2.35,-1.92,5.79
8.268,3.57,-1.27,0.43,3.81
8.278,1.73,0.70,2.40,3.04
8.288,-0.23,3.20,2.02,3.79
8.298,-2.42,5.61,0.12,6.11
8.308,-3.93,7.17,-0.97,8.23
8.318,-4.05,8.70,-1.90,9.78
8.328,-3.55,10.11,-2.46,10.99
8.338,-2.15,10.42,-2.44,10.92
8.348,-0.33,8.86,-0.28,8.87
8.357,0.86,5.92,2.25,6.39
8.368,1.46,3.29,3.20,4.81
8.378,1.47,1.28,4.66,5.05
8.387,1.12,-0.52,6.37,6.48
8.397,1.29,-1.64,5.94,6.29
8.407,1.87,-2.26,4.47,5.34
8.418,1.74,-2.56,4.30,5.30
8.427,1.21,-2.08,3.78,4.48
8.437,0.84,-1.13,2.73,3.08
8.447,0.19,-0.65,1.91,2.03
8.457,-0.60,-0.46,0.89,1.16
8.468,-1.30,-0.44,0.05,1.37
8.477,-2.05,-0.65,0.11,2.15
8.488,-2.59,-0.93,0.78,2.86
8.497,-2.88,-1.40,1.64,3.60
8.507,-3.09,-2.00,2.27,4.33
8.517,-3.34,-2.51,2.63,4.93
8.527,-3.51,-2.46,2.64,5.03
8.537,-3.46,-2.45,2.29,4.82
8.547,-3.32,-2.62,1.76,4.58
8.557,-2.95,-2.72,1.31,4.23
8.567,-2.13,-2.79,0.80,3.60
8.577,-1.08,-2.58,0.21,2.81
8.587,0.26,-1.99,-0.05,2.00
8.597,2.02,-1.28,-0.52,2.44
8.607,4.10,-1.08,-1.83,4.62
8.617,5.81,-1.35,-3.09,6.72
8.627,6.80,-1.63,-3.16,7.67
8.637,7.23,-1.83,-3.45,8.21
8.647,7.26,-1.41,-4.35,8.58
8.657,6.14,1.16,-5.08,8.05
8.667,4.31,2.73,-3.75,6.33
8.677,2.87,1.77,-1.26,3.60
8.687,1.91,1.87,-0.73,2.77
8.697,0.96,3.82,-0.42,3.96
8.707,0.14,5.76,0.19,5.77
8.717,-1.05,6.62,0.99,6.77
8.727,-2.81,6.62,2.59,7.64
8.737,-4.57,5.89,4.00,8.46
8.747,-5.41,4.37,2.85,7.52
8.757,-5.52,1.82,1.44,5.99
8.767,-5.08,0.42,1.38,5.28
8.777,-4.40,0.33,2.25,4.95
8.787,-3.67,0.69,2.43,4.45
8.797,-2.57,1.51,1.21,3.22
8.807,-1.76,2.47,-0.08,3.04
8.817,-2.02,3.31,-0.04,3.88
8.827,-2.89,3.78,1.67,5.05
8.837,-3.35,3.42,2.68,5.49
8.847,-2.92,2.52,1.62,4.19
8.857,-2.26,1.07,0.76,2.62
8.867,-1.74,-0.27,0.21,1.77
8.877,-1.28,-1.17,-0.30,1.76
8.887,-0.72,-1.53,0.11,1.69
8.897,-0.55,-1.31,0.24,1.44
8.907,-0.96,-1.10,0.77,1.65
8.917,-1.30,-1.15,0.80,1.91
8.927,-1.30,-1.37,0.71,2.02
8.937,-0.96,-1.57,0.47,1.90
8.947,-0.92,-1.76,-0.49,2.04
8.957,-0.63,-1.32,-0.27,1.49
8.967,-0.19,-0.99,0.05,1.01
8.977,0.29,-0.75,0.20,0.83
8.987,0.65,-0.49,-0.33,0.88
8.996,0.87,-0.35,-0.64,1.14
9.007,0.89,-0.33,-0.63,1.13
9.017,0.87,-0.43,-0.54,1.11
9.026,0.94,-0.56,-0.59,1.24
9.037,1.07,-0.65,-0.86,1.52
9.047,1.22,-0.62,-1.20,1.82
9.057,1.29,-0.56,-1.55,2.10
9.067,1.21,-0.57,-1.91,2.33
9.076,1.00,-0.62,-2.25,2.54
9.087,0.76,-0.72,-2.58,2.78
9.096,0.47,-0.98,-2.87,3.07
9.106,0.21,-1.39,-2.86,3.19
9.116,0.01,-2.00,-2.56,3.24
9.126,0.04,-2.85,-2.24,3.62
9.136,0.41,-3.88,-2.02,4.40
9.147,0.99,-4.90,-2.05,5.40
9.157,1.64,-5.54,-2.65,6.36
9.166,1.68,-5.19,-3.49,6.47
9.176,0.51,-3.64,-4.33,5.68
9.186,-1.31,-1.68,-5.41,5.81
9.196,-2.55,0.17,-6.27,6.77
9.206,-2.38,1.15,-5.83,6.40
9.216,-0.97,0.76,-5.11,5.25
9.226,1.04,-0.43,-4.71,4.84
9.236,3.07,-1.14,-4.34,5.43
9.246,4.39,-1.39,-3.67,5.89
9.256,4.71,-1.49,-2.88,5.72
9.266,4.14,-1.32,-1.57,4.62
9.276,2.85,-0.35,0.18,2.88
9.286,1.48,1.32,1.73,2.63
9.296,-0.05,3.25,2.06,3.85
9.306,-2.16,5.16,1.33,5.75
9.316,-3.54,6.71,-0.06,7.58
9.326,-3.82,8.83,-1.69,9.77
9.336,-3.45,10.37,-2.05,11.12
9.346,-2.04,10.46,-1.77,10.80
9.356,-0.33,9.14,0.31,9.15
9.366,0.92,6.25,2.31,6.73
9.376,1.45,3.62,3.24,5.06
9.386,1.40,1.36,4.57,4.97
9.396,1.04,-0.81,6.04,6.18
9.406,1.25,-1.97,5.28,5.77
9.416,1.70,-2.26,4.54,5.35
9.426,1.56,-2.45,4.69,5.52
9.436,1.41,-2.01,3.81,4.53
9.446,1.20,-1.19,2.81,3.28
9.456,0.51,-0.93,1.86,2.14
9.466,-0.30,-0.53,0.69,0.92
9.476,-1.15,-0.34,-0.11,1.20
9.486,-1.88,-0.48,0.03,1.95
9.496,-2.42,-0.78,0.82,2.67
9.506,-2.78,-1.38,1.78,3.57
9.516,-3.06,-1.99,2.37,4.35
9.526,-3.37,-2.35,2.42,4.77
9.536,-3.55,-2.47,2.18,4.85
9.546,-3.49,-2.59,1.86,4.73
9.556,-3.21,-2.76,1.39,4.46
9.566,-2.59,-2.76,0.94,3.90
9.576,-1.59,-2.61,0.34,3.07
9.586,-0.42,-2.09,-0.12,2.13
9.596,1.09,-1.30,-0.08,1.70
9.606,3.03,-0.80,-0.66,3.21
9.616,4.91,-0.83,-2.09,5.40
9.626,6.19,-1.17,-2.84,6.91
9.636,6.80,-1.62,-2.89,7.56
9.646,7.01,-1.97,-3.76,8.20
9.656,6.40,-0.72,-4.96,8.13
9.665,4.59,1.79,-4.88,6.93
9.675,2.84,1.27,-2.60,4.06
9.686,1.82,-0.10,-1.62,2.44
9.696,1.31,0.34,-2.24,2.62
9.705,0.89,1.54,-1.53,2.34
9.716,0.20,2.78,0.48,2.83
9.726,-1.00,3.88,1.31,4.22
9.736,-2.93,4.49,1.41,5.55
9.746,-4.85,4.75,1.94,7.06
9.755,-5.47,5.02,2.42,7.81
9.766,-4.95,4.78,2.06,7.18
9.775,-3.88,3.16,1.97,5.37
9.786,-2.77,1.52,1.85,3.67
9.795,-2.06,1.16,1.62,2.86
9.805,-1.61,1.05,1.44,2.41
9.815,-1.44,1.14,1.25,2.22
9.825,-1.79,1.56,1.16,2.65
9.835,-2.66,1.84,1.60,3.61
9.846,-3.05,1.99,1.26,3.86
9.855,-2.87,2.31,0.74,3.76
9.865,-2.70,2.43,0.82,3.73
9.875,-2.78,1.99,0.65,3.48
9.885,-2.58,0.86,0.01,2.72
9.896,-1.52,-0.44,0.54,1.67
9.905,-0.72,-0.72,0.29,1.06
9.915,-0.84,-0.81,-0.12,1.17
9.925,-1.09,-1.15,0.07,1.58
9.935,-1.16,-1.41,0.86,2.02
9.945,-0.89,-1.83,0.87,2.21
9.955,-1.03,-2.15,-0.25,2.39
9.965,-0.96,-1.66,-0.18,1.92
9.975,-0.65,-1.21,0.17,1.39
9.985,-0.18,-0.93,0.03,0.94
9.995,0.25,-0.68,-0.22,0.76
10.005,0.58,-0.52,-0.31,0.84
10.015,0.77,-0.57,-0.42,1.04
10.025,0.96,-0.70,-0.35,1.24
10.035,1.09,-0.74,-0.44,1.39
10.045,1.11,-0.60,-0.67,1.43
10.055,0.99,-0.41,-0.98,1.45
10.065,0.80,-0.33,-1.41,1.65
10.075,0.59,-0.35,-1.88,2.01
10.085,0.38,-0.46,-2.33,2.41
10.095,0.17,-0.72,-2.66,2.76
10.105,0.07,-1.14,-2.92,3.14
10.115,-0.01,-1.78,-3.10,3.57
10.125,-0.14,-2.73,-2.76,3.88
10.135,-0.08,-4.00,-2.36,4.64
10.145,0.53,-5.36,-2.10,5.78
10.155,1.71,-6.23,-2.22,6.84
10.165,2.48,-5.95,-2.96,7.09
10.175,1.56,-4.24,-4.10,6.10
10.185,-1.00,-1.83,-5.17,5.58
10.195,-3.45,0.57,-6.06,7.00
10.205,-4.35,2.56,-6.27,8.05
10.215,-3.15,3.27,-5.30,6.98
10.225,-0.43,2.27,-4.83,5.36
10.235,2.18,0.68,-4.57,5.11
10.245,3.67,-0.46,-4.29,5.67
10.255,4.23,-1.01,-3.47,5.56
10.265,4.42,-1.24,-2.05,5.03
10.275,4.23,-1.08,-0.33,4.38
10.285,3.58,-0.24,1.30,3.82
10.295,2.49,1.08,2.57,3.74
10.305,0.99,2.57,2.24,3.55
10.315,-0.74,4.54,1.00,4.71
10.325,-1.90,6.11,0.05,6.40
10.335,-2.14,7.75,-1.39,8.16
10.345,-1.67,9.36,-2.32,9.79
10.354,-1.18,9.44,-1.57,9.64
10.364,-0.27,7.75,-0.04,7.75
10.375,0.08,5.01,1.47,5.22
10.385,-0.03,2.65,2.99,3.99
10.395,-0.02,0.60,4.44,4.48
10.405,-0.08,-1.04,5.82,5.92
10.414,0.32,-1.95,5.68,6.02
10.425,1.00,-2.33,4.45,5.12
10.434,1.15,-2.68,4.05,4.99
10.445,1.15,-2.31,3.38,4.25
10.454,1.05,-1.44,2.65,3.19
10.465,0.50,-1.03,1.72,2.07
10.474,-0.25,-0.69,0.61,0.95
10.485,-1.05,-0.54,-0.02,1.18
10.494,-1.72,-0.64,0.24,1.86
10.504,-2.17,-1.00,0.98,2.58
10.514,-2.44,-1.58,1.80,3.42
10.524,-2.66,-2.21,2.25,4.12
10.534,-2.88,-2.70,2.36,4.60
10.544,-3.02,-2.71,2.32,4.67
10.554,-2.92,-2.83,2.18,4.61
10.564,-2.48,-3.06,1.91,4.37
10.574,-1.73,-3.08,1.44,3.82
10.584,-0.72,-2.58,0.76,2.78
10.594,0.69,-1.73,0.54,1.94
10.604,2.55,-1.07,0.18,2.78
10.614,4.68,-0.99,-1.41,4.99
10.624,6.51,-1.19,-3.21,7.36
10.634,7.65,-1.43,-3.48,8.52
10.644,8.01,-2.09,-3.67,9.06
10.654,7.60,-2.44,-4.60,9.21
10.664,5.86,0.04,-4.83,7.59
10.674,3.32,2.30,-3.43,5.30
10.684,2.05,1.84,-3.44,4.41
10.694,1.73,2.93,-2.68,4.33
10.704,1.92,5.16,0.05,5.50
10.714,1.36,6.93,1.75,7.28
10.724,-0.34,7.75,2.42,8.12
10.734,-3.05,7.33,3.97,8.88
10.744,-5.11,5.12,2.95,7.81
10.754,-5.80,2.31,1.56,6.43
10.764,-5.79,0.70,2.03,6.18
10.774,-5.66,0.28,2.81,6.33
10.784,-4.91,0.91,2.56,5.61
10.794,-3.59,1.53,1.58,4.21
10.804,-2.62,2.20,0.72,3.49
10.814,-2.33,2.91,-0.04,3.73
10.824,-2.59,3.59,0.23,4.43
10.834,-2.80,4.01,1.58,5.14
10.844,-2.79,3.66,2.16,5.09
10.854,-2.53,2.14,0.97,3.45
10.864,-2.33,0.23,0.33,2.36
10.874,-2.09,-0.77,-0.29,2.24
10.884,-1.64,-1.09,-0.79,2.12
10.894,-1.09,-1.00,-0.21,1.49
10.904,-1.09,-0.64,0.95,1.58
10.914,-1.34,-0.62,1.33,1.99
10.924,-1.43,-1.49,0.02,2.06
10.934,-1.52,-2.35,-0.74,2.90
10.944,-1.26,-2.21,-0.03,2.54
10.954,-0.75,-1.84,0.21,2.00
10.964,-0.07,-1.39,-0.03,1.39
10.974,0.55,-0.79,-0.28,1.00
10.984,0.97,-0.35,-0.38,1.10
10.994,1.02,-0.31,-0.29,1.11
11.004,0.92,-0.42,-0.10,1.02
11.014,0.81,-0.45,0.14,0.94
11.024,0.73,-0.46,0.29,0.91
11.034,0.71,-0.44,0.05,0.84
11.044,0.66,-0.55,-0.40,0.95
11.053,0.56,-0.69,-1.05,1.37
11.064,0.35,-0.94,-1.89,2.14
11.074,0.11,-1.23,-2.79,3.05
11.083,0.05,-1.56,-3.49,3.82
11.093,0.17,-2.12,-3.76,4.32
11.103,0.54,-2.73,-3.59,4.54
11.113,1.06,-3.28,-3.23,4.72
11.123,1.50,-3.99,-2.79,5.09
11.134,1.65,-4.64,-2.47,5.51
11.143,1.28,-4.81,-2.30,5.48
11.153,0.53,-4.06,-2.57,4.84
11.163,-0.67,-2.57,-2.97,3.98
11.173,-2.08,-0.85,-3.67,4.30
11.183,-3.13,0.89,-4.72,5.74
11.193,-3.09,2.10,-5.48,6.63
11.203,-1.46,1.71,-5.26,5.72
11.213,0.71,0.07,-4.73,4.78
11.223,2.75,-1.46,-4.61,5.56
11.233,4.66,-2.02,-4.71,6.93
11.243,5.86,-2.34,-4.46,7.72
11.253,5.97,-2.57,-3.53,7.39
11.263,5.09,-2.25,-1.72,5.83
11.273,3.45,-1.17,0.59,3.69
11.283,1.58,0.67,2.42,2.97
11.293,-0.24,3.03,2.09,3.68
11.303,-2.54,5.36,0.10,5.93
11.313,-4.30,7.35,-1.16,8.59
11.323,-4.62,9.35,-2.13,10.65
11.333,-4.15,11.32,-2.97,12.41
11.345,-2.84,11.93,-2.73,12.56
11.353,-0.82,9.79,-0.23,9.83
11.363,0.65,6.16,1.86,6.47
11.373,1.05,3.46,3.37,4.94
11.383,1.26,1.05,5.61,5.85
11.393,1.49,-0.90,7.10,7.32
11.403,2.09,-1.98,5.62,6.31
11.413,2.43,-2.87,4.87,6.16
11.423,2.44,-2.79,4.41,5.77
11.433,2.22,-1.93,3.69,4.73
11.443,1.36,-1.58,2.60,3.33
11.453,0.37,-1.22,1.35,1.86
11.463,-0.59,-1.03,0.29,1.22
11.473,-1.61,-0.97,-0.21,1.89
11.483,-2.52,-1.01,0.09,2.71
11.493,-3.21,-1.34,0.90,3.59
11.503,-3.68,-2.15,1.66,4.57
11.513,-3.99,-2.76,2.03,5.26
11.523,-4.19,-2.99,2.03,5.53
11.533,-4.13,-3.05,1.91,5.48
11.543,-3.71,-3.17,1.77,5.19
11.553,-3.08,-3.16,1.44,4.64
11.563,-2.15,-3.10,0.94,3.89
11.573,-0.97,-2.61,0.34,2.81
11.583,0.44,-1.62,0.30,1.70
11.593,2.40,-0.76,0.19,2.53
11.603,4.73,-0.45,-1.16,4.89
11.613,6.73,-0.57,-2.83,7.32
11.623,7.78,-1.17,-3.34,8.55
11.633,7.87,-2.02,-3.68,8.92
11.643,7.13,-2.19,-4.66,8.80
11.652,4.97,0.60,-5.40,7.36
11.662,2.58,1.51,-3.64,4.71
11.673,1.19,-0.34,-1.73,2.13
11.683,0.68,-0.57,-1.80,2.00
11.693,0.51,0.98,-1.27,1.68
11.703,0.29,3.10,0.91,3.25
11.713,-0.33,4.82,2.53,5.45
11.723,-2.02,5.99,2.74,6.89
11.733,-3.74,6.97,2.99,8.46
11.743,-4.35,7.46,2.90,9.11
11.752,-4.19,6.33,1.92,7.83
11.763,-3.64,3.76,1.77,5.53
11.772,-3.37,2.18,1.78,4.39
11.783,-3.22,1.77,1.89,4.14
11.792,-2.94,1.75,1.69,3.82
11.803,-2.65,1.96,1.06,3.46
11.812,-2.88,2.02,0.29,3.53
11.822,-3.38,1.94,0.69,3.95
11.832,-3.61,2.35,1.93,4.72
11.842,-3.49,2.78,1.67,4.77
11.852,-3.20,2.13,0.85,3.94
11.862,-3.29,1.05,0.16,3.46
11.872,-2.60,-0.26,-0.00,2.62
11.882,-1.30,-1.05,-0.38,1.71
11.892,-0.85,-1.02,-0.43,1.39
11.902,-1.19,-0.90,0.40,1.54
11.912,-1.40,-0.97,1.32,2.16
11.922,-1.42,-1.40,0.56,2.07
11.932,-1.61,-1.67,-0.94,2.50
11.942,-1.26,-1.11,-0.64,1.79
11.952,-0.47,-0.70,-0.14,0.86
11.962,0.53,-0.72,-0.34,0.96
11.972,1.45,-0.97,-0.59,1.84
11.982,2.06,-1.25,-0.63,2.49
11.992,2.29,-1.50,-0.55,2.80
12.002,2.24,-1.60,-0.43,2.78
12.012,2.08,-1.51,-0.31,2.58
12.022,1.95,-1.19,-0.37,2.32
12.032,1.88,-0.78,-0.62,2.13
12.042,1.79,-0.41,-0.97,2.07
12.052,1.61,-0.21,-1.47,2.19
12.062,1.06,-0.25,-1.90,2.19
12.072,0.11,-0.80,-2.30,2.44
12.082,-0.66,-1.27,-2.96,3.29
12.092,-1.20,-1.95,-3.25,3.97
12.102,-1.40,-2.88,-3.03,4.41
12.112,-1.09,-3.99,-2.51,4.84
12.122,-0.37,-4.90,-1.75,5.21
12.132,0.37,-5.43,-1.33,5.61
12.142,0.64,-5.31,-1.91,5.67
12.152,0.07,-4.11,-3.10,5.15
12.162,-1.36,-2.18,-4.27,4.98
12.172,-2.90,-0.06,-5.37,6.10
12.182,-3.66,1.83,-6.11,7.35
12.192,-3.32,2.54,-5.51,6.91
12.202,-1.91,2.00,-4.76,5.51
12.212,0.27,0.73,-4.29,4.36
12.222,2.70,-0.31,-4.29,5.08
12.232,4.67,-0.94,-4.42,6.50
12.242,5.57,-1.57,-3.80,6.92
12.252,5.35,-2.08,-2.07,6.10
12.262,4.25,-1.75,0.34,4.61
12.272,2.67,-0.49,2.46,3.66
12.282,0.87,1.18,2.63,3.01
12.292,-1.07,3.03,0.74,3.30
12.301,-2.54,4.98,-1.08,5.69
12.312,-2.71,6.97,-2.11,7.77
12.322,-1.78,9.32,-2.62,9.85
12.332,-0.39,10.85,-2.86,11.23
12.341,1.23,10.30,-1.38,10.46
12.352,2.48,7.42,0.71,7.85
12.362,2.90,4.21,3.02,5.94
12.372,2.22,1.54,5.79,6.39
12.382,1.05,-0.48,7.24,7.33
12.392,0.47,-1.82,6.15,6.43
12.401,0.55,-2.73,4.96,5.69
12.412,0.35,-3.10,4.61,5.57
12.421,0.23,-2.53,3.75,4.53
12.432,0.04,-1.80,2.57,3.14
12.442,-0.48,-1.37,1.33,1.97
12.451,-1.07,-0.95,-0.24,1.45
12.462,-1.85,-0.68,-1.24,2.33
12.471,-2.68,-0.64,-1.02,2.94
12.481,-3.21,-0.90,0.02,3.34
12.491,-3.45,-1.50,1.16,3.94
12.501,-3.44,-1.98,2.13,4.51
12.511,-3.35,-2.28,2.47,4.75
12.521,-3.28,-2.27,2.28,4.59
12.531,-3.24,-2.25,2.11,4.47
12.541,-3.04,-2.55,1.69,4.31
12.551,-2.42,-2.88,0.99,3.89
12.561,-1.44,-2.93,0.28,3.28
12.571,-0.23,-2.49,-0.17,2.51
12.581,1.38,-1.93,-0.18,2.38
12.591,3.57,-1.80,-0.92,4.10
12.601,5.77,-2.11,-2.49,6.63
12.611,7.22,-2.21,-2.99,8.12
12.621,7.67,-2.26,-3.23,8.62
12.631,7.26,-2.75,-4.49,8.97
12.641,5.97,-1.19,-5.26,8.05
12.651,3.39,2.09,-4.13,5.74
12.661,1.47,2.19,-2.00,3.31
12.671,0.82,1.56,-1.59,2.38
12.681,1.08,2.70,-1.40,3.22
12.691,1.27,4.51,0.70,4.74
12.701,0.67,6.33,2.91,6.99
12.711,-0.61,7.61,3.64,8.45
12.721,-2.46,7.76,3.25,8.77
12.731,-3.61,5.63,2.15,7.02
12.741,-3.75,2.95,2.30,5.30
12.751,-4.00,2.41,3.45,5.81
12.761,-4.18,2.17,3.32,5.76
12.771,-4.03,2.16,2.25,5.09
12.781,-3.53,2.79,0.95,4.60
12.791,-3.28,3.18,-0.02,4.57
12.801,-3.45,2.76,-0.50,4.44
12.811,-3.77,2.29,0.01,4.41
12.821,-4.21,2.53,1.56,5.15
12.831,-4.56,2.60,2.04,5.63
12.841,-5.11,1.66,1.04,5.48
12.851,-4.16,0.14,-0.43,4.19
12.861,-2.81,-0.55,-1.07,3.05
12.871,-1.93,-0.68,-0.56,2.12
12.881,-1.52,-0.29,-0.19,1.56
12.891,-1.51,-0.06,0.05,1.51
12.901,-1.45,-0.41,0.74,1.68
12.911,-1.04,-1.09,0.26,1.53
12.921,-0.44,-1.62,0.16,1.68
12.931,0.45,-1.82,0.14,1.88
12.941,0.92,-1.89,-0.58,2.18
12.951,1.53,-1.35,-0.35,2.07
12.961,2.06,-0.98,-0.15,2.28
12.971,2.30,-0.90,-0.33,2.50
12.981,2.25,-0.93,-0.57,2.50
12.990,2.02,-1.05,-0.65,2.36
13.001,1.67,-1.15,-0.64,2.13
13.011,1.32,-1.22,-0.76,1.95
13.021,1.01,-1.18,-0.99,1.84
13.031,0.86,-1.22,-1.37,2.02
13.041,0.82,-1.28,-1.76,2.33
13.051,0.82,-1.39,-2.11,2.66
13.061,0.66,-1.58,-2.57,3.09
13.071,0.37,-1.84,-3.00,3.54
13.081,0.02,-2.24,-3.12,3.84
13.091,-0.36,-2.67,-3.01,4.04
13.100,-0.74,-3.25,-2.45,4.14
13.110,-0.66,-3.93,-2.04,4.48
13.120,0.00,-4.40,-1.78,4.75
13.130,0.86,-4.41,-1.76,4.82
13.141,1.11,-3.82,-2.20,4.55
13.150,0.18,-2.55,-3.25,4.13
13.161,-1.53,-0.94,-4.71,5.04
13.170,-2.79,0.66,-6.21,6.84
13.180,-2.75,1.73,-6.64,7.39
13.190,-1.85,1.45,-5.70,6.17
13.200,-0.71,0.42,-4.73,4.80
13.210,1.09,-0.67,-4.23,4.42
13.220,2.90,-1.68,-3.71,5.00
13.230,4.10,-2.23,-3.09,5.59
13.240,4.26,-2.41,-2.36,5.43
13.250,3.43,-2.00,-0.87,4.06
13.260,2.01,-0.76,0.86,2.31
13.270,0.48,1.50,1.83,2.41
13.280,-1.53,4.47,1.16,4.87
13.290,-3.43,6.59,-0.18,7.44
13.300,-4.05,8.53,-1.69,9.60
13.310,-3.80,10.39,-2.42,11.32
13.320,-2.46,11.02,-2.57,11.58
13.330,-0.51,9.60,-1.59,9.74
13.340,1.02,6.58,0.74,6.70
13.350,1.83,3.75,2.43,4.83
13.360,2.16,1.69,3.89,4.76
13.370,2.03,-0.05,5.81,6.15
13.380,1.86,-1.28,6.04,6.45
13.390,2.01,-1.67,4.90,5.55
13.400,2.08,-1.82,4.39,5.19
13.410,2.03,-1.42,3.93,4.64
13.420,1.68,-1.08,3.56,4.09
13.430,0.87,-1.11,2.82,3.16
13.440,0.01,-0.94,1.60,1.85
13.450,-0.79,-0.91,0.49,1.30
13.460,-1.67,-1.21,-0.04,2.06
13.470,-2.49,-1.65,0.22,2.99
13.480,-3.14,-2.11,0.91,3.89
13.490,-3.64,-2.69,1.63,4.81
13.500,-3.83,-2.89,2.11,5.24
13.510,-3.83,-2.94,2.06,5.25
13.520,-3.61,-2.97,1.89,5.04
13.530,-3.28,-3.12,1.74,4.85
13.540,-2.95,-3.29,1.46,4.65
13.550,-2.44,-3.38,1.02,4.29
13.560,-1.71,-3.10,0.39,3.56
13.570,-0.65,-2.26,-0.02,2.36
13.580,0.84,-1.23,0.01,1.49
13.590,2.80,-0.50,-0.47,2.88
13.600,5.04,-0.38,-1.99,5.43
13.610,6.55,-0.59,-2.85,7.17
13.620,7.44,-1.08,-3.21,8.18
13.630,7.85,-1.99,-4.37,9.20
13.640,7.39,-1.45,-5.85,9.54
13.650,4.92,1.38,-5.19,7.28
13.660,2.59,1.65,-2.58,4.01
13.670,1.58,0.62,-2.39,2.93
13.680,1.04,1.18,-2.58,3.02
13.690,0.68,2.87,-0.92,3.09
13.700,0.20,4.98,1.65,5.25
13.710,-0.81,6.27,3.08,7.03
13.720,-2.86,6.46,3.38,7.83
13.730,-4.45,5.76,3.32,8.00
13.740,-4.66,4.41,1.99,6.72
13.749,-4.53,2.56,0.92,5.29
13.760,-4.22,1.35,1.61,4.71
13.769,-3.66,1.18,2.38,4.52
13.780,-2.94,1.51,2.57,4.19
13.789,-2.24,1.99,1.90,3.55
13.800,-2.23,2.58,1.22,3.62
13.809,-2.99,2.73,0.87,4.14
13.819,-3.61,2.80,1.40,4.78
13.829,-4.00,3.48,1.89,5.63
13.840,-4.29,3.65,1.36,5.80
13.849,-4.27,2.51,0.57,4.99
13.859,-3.80,0.50,-0.50,3.86
13.869,-2.54,-0.71,-0.86,2.77
13.879,-1.35,-0.88,-0.32,1.64
13.889,-0.58,-0.95,0.49,1.22
13.899,-0.90,-0.63,0.19,1.12
13.909,-1.37,-0.59,-0.21,1.51
13.919,-1.27,-0.91,0.41,1.61
13.929,-1.05,-1.58,0.28,1.92
13.939,-0.85,-1.80,-0.33,2.01
13.949,-0.12,-1.44,-0.19,1.46
13.959,0.72,-1.30,-0.06,1.49
13.969,1.42,-1.22,-0.14,1.87
13.979,1.77,-1.14,-0.37,2.14
13.989,1.75,-1.16,-0.45,2.15
13.999,1.52,-1.24,-0.33,1.99
14.009,1.34,-1.19,-0.24,1.81
14.019,1.24,-1.14,-0.16,1.69
14.029,1.03,-1.04,-0.40,1.51
14.039,1.01,-0.66,-1.10,1.63
14.049,0.98,-0.39,-1.68,1.98
14.059,0.81,-0.42,-2.27,2.45
14.069,0.48,-0.84,-2.98,3.14
14.079,0.08,-1.64,-3.69,4.04
14.089,-0.22,-2.44,-3.94,4.64
14.099,-0.31,-3.29,-3.66,4.93
14.109,-0.20,-4.36,-2.95,5.27
14.119,0.28,-5.17,-2.38,5.70
14.129,0.91,-5.35,-2.45,5.96
14.139,1.27,-4.91,-3.03,5.91
14.149,0.77,-3.54,-4.16,5.52
14.159,-0.93,-1.59,-5.10,5.42
14.169,-2.74,0.29,-5.57,6.22
14.179,-3.45,1.71,-5.28,6.54
14.189,-2.54,2.34,-4.72,5.85
14.199,-0.45,1.95,-4.35,4.79
14.209,1.59,0.84,-4.01,4.40
14.219,3.02,-0.06,-3.87,4.91
14.229,3.82,-0.78,-3.16,5.02
14.239,4.04,-1.15,-1.79,4.57
14.249,3.51,-1.04,0.27,3.67
14.259,2.35,-0.39,2.50,3.46
14.269,0.93,0.72,3.15,3.36
14.279,-0.66,2.36,1.59,2.92
14.289,-2.13,4.26,-0.08,4.77
14.299,-2.55,6.12,-1.27,6.75
14.309,-2.18,7.99,-2.10,8.55
14.319,-1.62,9.74,-1.91,10.06
14.329,-0.36,10.36,-1.47,10.47
14.339,1.11,8.70,-0.08,8.77
14.349,1.59,5.81,1.98,6.34
14.359,0.99,3.05,3.58,4.80
14.368,0.19,1.18,4.61,4.76
14.379,-0.08,-0.39,5.75,5.76
14.388,0.49,-1.98,5.66,6.02
14.399,1.47,-2.74,4.11,5.15
14.408,1.83,-3.06,3.74,5.17
14.418,1.34,-2.43,3.48,4.45
14.428,0.75,-1.20,2.64,2.99
14.439,0.19,-0.33,1.83,1.87
14.449,-0.49,-0.07,0.94,1.06
14.459,-1.23,-0.20,0.34,1.29
14.468,-1.93,-0.57,0.40,2.05
14.479,-2.47,-1.06,1.03,2.88
14.489,-2.78,-1.58,1.73,3.64
14.498,-2.95,-2.13,2.25,4.28
14.509,-2.99,-2.37,2.48,4.55
14.518,-2.94,-2.35,2.53,4.54
14.528,-2.85,-2.56,2.35,4.49
14.538,-2.55,-2.91,1.88,4.30
14.548,-1.98,-3.02,1.36,3.86
14.558,-1.13,-2.91,0.63,3.19
14.568,0.03,-2.43,-0.04,2.44
14.578,1.42,-1.76,-0.43,2.30
14.588,3.19,-1.24,-1.35,3.68
14.598,5.05,-1.24,-2.99,6.00
14.608,6.31,-1.45,-3.62,7.41
14.618,6.92,-1.70,-3.32,7.86
14.628,7.16,-2.30,-3.45,8.27
14.638,6.65,-1.90,-3.77,7.88
14.648,4.50,0.55,-3.51,5.73
14.658,2.33,0.89,-2.05,3.23
14.668,1.39,-0.18,-2.22,2.62
14.678,1.11,0.80,-3.11,3.40
14.688,1.30,2.91,-1.38,3.47
14.698,1.19,4.68,1.99,5.22
14.708,0.36,6.54,4.51,7.95
14.718,-1.22,8.06,5.36,9.76
14.728,-2.46,7.73,3.76,8.94
14.738,-2.59,4.94,1.70,5.83
14.748,-2.93,2.13,2.19,4.23
14.758,-3.53,1.53,3.07,4.93
14.768,-3.44,1.84,2.84,4.83
14.778,-2.88,1.92,1.90,3.95
14.788,-2.61,1.93,0.99,3.40
14.798,-2.74,1.95,0.25,3.37
14.808,-3.06,1.67,-0.27,3.50
14.818,-3.71,2.01,0.30,4.23
14.828,-4.59,2.79,1.63,5.62
14.838,-5.25,2.91,1.83,6.27
14.848,-5.04,1.86,0.01,5.37
14.858,-4.62,0.50,-1.34,4.83
14.868,-3.50,-0.05,-1.63,3.86
14.878,-2.25,-0.07,-1.02,2.47
14.888,-1.45,0.34,-0.06,1.49
14.898,-0.97,0.27,0.69,1.22
14.908,-0.77,-0.33,0.65,1.06
14.918,-0.51,-0.93,0.27,1.10
14.928,-0.02,-1.61,-0.22,1.63
14.938,0.22,-1.95,-0.98,2.19
14.948,0.79,-1.53,-0.78,1.90
14.958,1.38,-1.27,-0.22,1.88
14.968,1.76,-1.25,0.09,2.16
14.978,1.79,-1.31,0.07,2.22
14.988,1.55,-1.37,-0.29,2.09
14.998,1.16,-1.35,-0.57,1.87
15.008,0.92,-1.38,-0.66,1.79
15.018,0.85,-1.34,-0.79,1.77
15.028,0.93,-1.20,-1.16,1.91
15.038,1.14,-1.11,-1.43,2.14
15.047,1.30,-0.98,-1.82,2.44
15.058,1.30,-0.85,-2.23,2.71
15.067,1.09,-0.91,-2.53,2.90
15.078,0.71,-1.17,-2.81,3.12
15.087,0.23,-1.48,-2.82,3.19
15.098,-0.19,-1.84,-2.46,3.08
15.107,-0.34,-2.48,-2.02,3.21
15.118,0.01,-3.61,-1.89,4.08
15.128,0.82,-4.70,-2.12,5.22
15.138,1.56,-5.23,-2.51,6.01
15.147,1.37,-4.78,-3.19,5.91
15.158,0.00,-3.29,-4.32,5.43
15.167,-1.63,-1.49,-5.60,6.02
15.178,-2.87,0.01,-6.38,6.99
15.187,-2.84,0.72,-6.03,6.70
15.197,-1.79,0.47,-5.31,5.63
15.207,0.02,-0.40,-4.63,4.65
15.217,2.03,-1.32,-3.91,4.60
15.227,3.56,-1.75,-3.33,5.18
15.237,4.02,-1.83,-2.75,5.20
15.247,3.52,-1.64,-1.60,4.20
15.257,2.43,-0.89,0.30,2.61
15.267,1.29,0.69,1.75,2.28
15.277,-0.02,2.87,1.48,3.24
15.287,-1.75,5.12,0.51,5.44
15.297,-2.69,6.55,-0.64,7.11
15.307,-2.74,8.32,-2.35,9.07
15.317,-2.17,10.03,-2.20,10.49
15.327,-0.98,10.22,-1.66,10.40
15.337,0.47,8.59,-0.23,8.61
15.347,1.43,6.02,1.76,6.43
15.357,1.95,3.62,2.68,4.90
15.367,1.72,1.67,3.91,4.59
15.377,0.91,0.18,5.75,5.82
15.387,0.54,-1.18,5.81,5.96
15.397,0.78,-1.87,4.17,4.64
15.407,0.68,-2.27,4.26,4.87
15.417,0.41,-1.89,4.08,4.52
15.427,0.18,-1.24,3.23,3.47
15.437,-0.21,-0.95,2.21,2.41
15.447,-0.75,-0.91,0.95,1.51
15.457,-1.42,-0.83,-0.04,1.65
15.467,-2.06,-0.94,-0.39,2.30
15.477,-2.53,-1.21,0.19,2.81
15.487,-2.79,-1.56,1.20,3.41
15.497,-2.84,-1.99,2.06,4.04
15.507,-2.88,-2.14,2.63,4.45
15.517,-2.88,-1.84,2.78,4.41
15.527,-2.90,-1.84,2.62,4.32
15.537,-2.80,-2.15,2.13,4.12
15.547,-2.50,-2.47,1.55,3.84
15.557,-1.90,-2.54,0.95,3.31
15.567,-0.99,-2.36,0.34,2.58
15.577,0.14,-1.82,-0.23,1.84
15.587,1.55,-1.05,-0.48,1.93
15.597,3.54,-0.45,-1.17,3.75
15.607,5.51,-0.43,-2.70,6.15
15.617,6.91,-0.96,-3.35,7.74
15.627,7.53,-1.68,-3.17,8.34
15.637,7.67,-2.68,-4.01,9.06
15.647,7.13,-2.06,-5.40,9.17
15.657,4.83,1.21,-5.12,7.14
15.667,2.39,1.71,-2.67,3.98
15.677,1.09,0.32,-2.02,2.32
15.687,0.40,0.15,-2.04,2.08
15.697,0.11,1.26,-0.55,1.38
15.707,-0.29,2.53,1.87,3.16
15.717,-1.54,2.99,2.96,4.48
15.726,-3.55,3.16,2.79,5.51
15.737,-4.96,3.75,4.05,7.42
15.746,-4.75,5.02,4.16,8.06
15.756,-3.67,6.43,2.49,7.81
15.767,-2.67,5.99,1.37,6.69
15.776,-2.03,3.68,1.20,4.37
15.786,-1.93,2.63,1.20,3.48
15.796,-2.15,2.34,0.94,3.31
15.806,-2.72,1.76,0.97,3.38
15.817,-3.38,1.02,1.24,3.74
15.826,-3.72,0.84,1.22,4.00
15.836,-3.97,1.68,1.01,4.42
15.846,-4.24,2.26,1.07,4.92
15.856,-4.22,1.84,0.45,4.63
15.866,-3.98,0.88,-0.31,4.08
15.876,-2.64,-0.05,-0.47,2.68
15.886,-1.53,-0.47,-0.08,1.60
15.896,-1.47,0.19,-0.45,1.54
15.906,-1.63,0.65,-0.15,1.76
15.916,-1.63,0.33,0.78,1.83
15.926,-1.60,-0.44,0.26,1.68
15.936,-1.24,-0.73,-0.36,1.48
15.946,-0.56,-0.85,-0.17,1.03
15.956,0.21,-1.10,-0.13,1.13
15.966,0.89,-1.33,-0.27,1.62
15.976,1.40,-1.34,-0.24,1.95
15.986,1.65,-1.20,-0.15,2.04
15.996,1.55,-1.23,-0.10,1.98
16.006,1.33,-1.24,-0.21,1.83
16.016,1.18,-1.19,-0.25,1.69
16.026,1.02,-1.06,-0.39,1.53
16.036,0.91,-0.97,-0.69,1.49
16.046,0.84,-0.86,-1.29,1.77
16.056,0.82,-0.80,-2.04,2.34
16.066,0.75,-0.89,-2.73,2.97
16.076,0.59,-1.19,-3.26,3.52
16.086,0.33,-1.70,-3.58,3.98
16.096,0.01,-2.24,-3.50,4.15
16.106,-0.36,-2.87,-2.92,4.11
16.116,-0.61,-3.73,-2.39,4.47
16.126,-0.32,-4.58,-2.03,5.02
16.136,0.37,-5.16,-1.95,5.52
16.146,0.97,-5.19,-2.50,5.85
16.157,0.51,-4.29,-3.24,5.40
16.166,-1.15,-2.66,-4.22,5.12
16.176,-2.63,-0.78,-5.48,6.13
16.186,-2.97,0.81,-6.09,6.83
16.196,-2.42,1.34,-5.28,5.96
16.206,-1.05,0.89,-4.71,4.91
16.216,0.77,-0.17,-4.32,4.40
16.226,2.41,-1.07,-3.84,4.66
16.236,3.31,-1.58,-3.24,4.89
16.246,3.24,-1.79,-2.10,4.25
16.256,2.61,-1.38,-0.13,2.95
16.266,1.83,-0.24,1.43,2.34
16.276,0.96,1.78,1.77,2.68
16.286,-0.59,4.18,1.26,4.41
16.296,-1.44,5.39,0.15,5.58
16.306,-1.32,7.14,-1.41,7.40
16.316,-0.65,9.10,-1.55,9.26
16.325,0.40,9.82,-1.27,9.91
16.336,1.83,9.07,-0.76,9.29
16.345,2.85,6.97,0.57,7.55
16.356,3.33,4.55,1.81,5.92
16.365,3.07,2.65,3.53,5.38
16.376,2.07,0.98,5.53,5.98
16.386,1.08,-0.59,5.75,5.88
16.396,0.42,-1.63,4.14,4.47
16.406,-0.01,-2.18,3.91,4.47
16.416,-0.30,-2.04,3.90,4.41
16.426,-0.32,-1.41,3.17,3.48
16.436,-0.35,-1.05,2.20,2.47
16.445,-0.47,-1.06,1.09,1.59
16.456,-0.78,-1.19,-0.10,1.43
16.466,-1.20,-1.44,-0.85,2.06
16.475,-1.68,-1.69,-0.50,2.43
16.486,-2.05,-1.90,0.61,2.86
16.495,-2.36,-2.31,1.65,3.69
16.505,-2.52,-2.43,2.49,4.29
16.515,-2.65,-2.21,2.76,4.42
16.525,-2.74,-2.04,2.58,4.28
16.535,-2.75,-2.12,2.21,4.12
16.545,-2.81,-2.40,1.60,4.03
16.555,-2.63,-2.58,1.02,3.82
16.565,-2.10,-2.69,0.49,3.44
16.575,-1.26,-2.32,-0.15,2.65
16.585,0.00,-1.64,-0.36,1.68
16.595,1.80,-1.01,-0.60,2.15
16.605,3.84,-0.78,-1.65,4.25
16.615,5.53,-1.16,-2.89,6.35
16.625,6.26,-1.83,-3.26,7.29
16.635,6.46,-2.47,-4.03,8.01
16.645,6.43,-2.49,-5.50,8.82
16.655,5.49,-0.20,-6.01,8.14
16.665,3.90,1.43,-3.98,5.75
16.675,2.62,0.76,-1.99,3.37
16.685,1.81,0.68,-1.66,2.54
16.695,1.32,2.60,-1.36,3.22
16.705,1.24,5.00,0.68,5.19
16.715,0.82,6.45,3.13,7.21
16.725,-0.73,7.07,4.74,8.54
16.735,-2.74,7.07,4.72,8.93
16.745,-3.91,6.06,3.09,7.85
16.755,-4.60,4.24,1.90,6.54
16.765,-5.14,2.01,1.87,5.83
16.775,-5.00,0.82,2.51,5.65
16.785,-4.37,0.82,3.31,5.54
16.795,-3.49,1.15,2.62,4.52
16.805,-2.56,1.41,1.23,3.17
16.815,-2.40,1.60,0.47,2.92
16.825,-2.74,1.94,0.49,3.39
16.835,-3.11,2.67,1.90,4.51
16.845,-3.13,3.52,2.64,5.40
16.855,-2.65,3.17,1.46,4.38
16.865,-2.24,1.34,0.38,2.64
16.875,-1.58,-0.55,0.38,1.71
16.885,-0.90,-0.91,-0.03,1.28
16.895,-1.03,-0.39,-0.22,1.12
16.905,-1.52,0.11,0.37,1.57
16.915,-2.23,0.23,0.58,2.31
16.925,-2.65,-0.24,0.29,2.67
16.935,-2.43,-0.88,-0.05,2.59
16.945,-1.49,-1.43,-0.16,2.07
16.955,-0.66,-2.04,-0.90,2.33
16.965,0.14,-1.78,-1.36,2.25
16.975,1.05,-1.20,-0.94,1.85
16.985,1.70,-0.84,-0.53,1.97
16.995,2.01,-0.65,-0.50,2.17
17.005,1.96,-0.62,-0.61,2.15
17.015,1.77,-0.71,-0.65,2.01
17.025,1.57,-0.87,-0.62,1.90
17.035,1.44,-0.92,-0.77,1.87
17.045,1.39,-0.91,-0.98,1.92
17.055,1.22,-0.84,-1.18,1.90
17.065,0.98,-0.61,-1.67,2.03
17.074,0.68,-0.45,-2.02,2.18
17.085,0.35,-0.42,-2.31,2.37
17.095,0.09,-0.62,-2.55,2.63
17.105,-0.12,-0.96,-2.61,2.78
17.115,-0.30,-1.55,-2.40,2.87
17.125,-0.37,-2.24,-2.00,3.02
17.135,-0.25,-2.98,-1.70,3.44
17.144,0.09,-3.78,-1.40,4.04
17.155,0.65,-4.49,-1.24,4.70
17.164,1.25,-4.77,-1.52,5.15
17.175,1.36,-4.24,-2.05,4.90
17.184,0.47,-2.95,-3.11,4.31
17.194,-1.02,-1.23,-4.60,4.87
17.204,-2.15,0.50,-5.76,6.17
17.215,-1.95,1.55,-6.08,6.57
17.224,-0.41,1.47,-5.62,5.83
17.235,1.58,0.40,-5.02,5.27
17.244,3.28,-0.61,-4.47,5.58
17.254,4.26,-1.02,-3.98,5.92
17.264,4.33,-1.22,-3.36,5.62
17.274,3.92,-1.34,-2.29,4.73
17.284,3.24,-1.08,-0.94,3.54
17.294,2.22,-0.50,0.58,2.35
17.304,1.28,0.48,1.96,2.39
17.314,0.40,1.42,2.15,2.61
17.324,-0.84,2.68,1.13,3.03
17.334,-1.98,3.96,-0.08,4.43
17.344,-2.11,5.95,-1.62,6.51
17.354,-2.15,8.19,-1.79,8.65
17.364,-1.51,9.41,-1.66,9.67
17.374,-0.40,9.21,-0.86,9.26
17.384,0.45,7.47,1.01,7.55
17.394,0.39,4.90,2.41,5.48
17.404,0.41,2.37,3.61,4.34
17.414,0.38,0.26,5.05,5.07
17.424,0.47,-1.48,6.04,6.24
17.434,1.19,-2.36,4.57,5.28
17.444,1.75,-2.75,4.20,5.32
17.454,2.09,-2.22,3.71,4.80
17.464,2.06,-1.16,2.69,3.58
17.474,1.36,-0.84,1.61,2.27
17.484,0.52,-0.74,0.45,1.01
17.494,-0.37,-0.53,-0.71,0.96
17.504,-1.34,-0.34,-1.02,1.72
17.514,-2.18,-0.60,-0.11,2.27
17.524,-2.76,-1.09,1.07,3.16
17.534,-3.11,-1.70,2.07,4.10
17.544,-3.39,-2.20,2.51,4.75
17.554,-3.60,-2.30,2.38,4.89
17.564,-3.67,-2.45,2.02,4.85
17.574,-3.48,-2.75,1.59,4.71
17.584,-3.04,-2.78,1.12,4.27
17.594,-2.30,-2.69,0.53,3.58
17.604,-1.27,-2.41,-0.17,2.73
17.614,0.11,-1.75,-0.41,1.80
17.624,1.97,-1.17,-0.52,2.35
17.634,4.00,-1.22,-1.41,4.41
17.644,5.57,-1.63,-2.53,6.33
17.654,6.27,-2.35,-2.86,7.28
17.664,6.17,-2.89,-2.74,7.35
17.674,5.75,-2.76,-3.12,7.10
17.684,4.81,-0.50,-3.77,6.14
17.694,3.35,1.59,-2.82,4.66
17.704,2.18,1.63,-1.37,3.05
17.714,2.03,2.75,-1.14,3.60
17.724,2.37,4.95,-0.78,5.54
17.734,2.05,6.76,0.34,7.07
17.744,0.68,7.90,1.60,8.09
17.754,-1.09,7.81,2.92,8.41
17.764,-2.72,5.69,2.19,6.68
17.774,-4.04,1.67,0.98,4.47
17.783,-5.22,-0.74,1.32,5.43
17.794,-5.85,-1.04,2.01,6.27
17.803,-5.51,-0.01,2.51,6.05
17.814,-4.11,1.60,2.36,5.00
17.824,-2.82,2.79,1.97,4.43
17.834,-2.03,4.02,1.11,4.64
17.843,-2.00,5.04,0.98,5.51
17.854,-2.26,5.44,1.22,6.02
17.863,-2.49,4.28,1.54,5.19
17.873,-2.38,1.80,1.31,3.25
17.883,-2.07,-0.37,0.70,2.22
17.893,-2.06,-1.28,-0.01,2.43
17.903,-1.91,-2.00,-0.68,2.85
17.913,-1.96,-1.85,-0.91,2.85
17.923,-2.56,-1.19,0.14,2.82
17.933,-2.76,-0.87,0.59,2.96
17.943,-2.82,-0.75,-0.56,2.97
17.953,-2.40,-0.29,-0.76,2.53
17.963,-1.56,-0.23,-0.39,1.62
17.973,-0.70,-0.59,-0.12,0.92
17.983,0.24,-0.85,-0.36,0.96
17.993,1.14,-1.00,-0.80,1.72
18.003,1.70,-1.04,-0.88,2.18
18.013,1.93,-1.05,-0.79,2.34
18.023,1.89,-1.13,-0.63,2.29
18.033,1.78,-1.17,-0.49,2.19
18.043,1.77,-1.22,-0.17,2.16
18.053,1.64,-1.24,-0.00,2.06
18.063,1.58,-1.12,-0.56,2.01
18.073,1.52,-0.86,-1.10,2.06
18.083,1.36,-0.71,-1.62,2.23
18.093,1.10,-0.77,-2.13,2.52
18.103,0.64,-0.93,-2.49,2.74
18.113,0.14,-1.18,-2.90,3.14
18.123,-0.17,-1.52,-3.29,3.63
18.133,-0.34,-1.98,-3.45,3.99
18.143,-0.37,-2.50,-3.19,4.07
18.153,-0.20,-2.99,-2.58,3.95
18.163,0.21,-3.70,-1.81,4.13
18.173,0.57,-4.43,-1.22,4.63
18.183,0.66,-4.63,-1.41,4.89
18.193,0.26,-3.95,-2.02,4.44
18.203,-0.85,-2.47,-2.65,3.73
18.213,-2.40,-0.72,-3.63,4.41
18.223,-3.58,1.01,-4.68,5.97
18.233,-3.63,2.16,-5.10,6.62
18.243,-2.40,2.03,-4.63,5.60
18.253,-0.35,0.67,-4.25,4.32
18.263,1.87,-0.46,-4.22,4.64
18.273,3.69,-0.90,-4.08,5.57
18.283,4.60,-1.17,-3.43,5.86
18.293,4.57,-1.46,-2.12,5.24
18.303,3.77,-1.34,-0.22,4.01
18.313,2.58,-0.45,1.73,3.14
18.323,1.40,0.94,2.61,3.10
18.333,-0.16,2.49,1.91,3.15
18.343,-2.01,3.86,0.78,4.42
18.353,-2.60,5.63,-0.83,6.26
18.363,-2.64,7.78,-1.57,8.36
18.373,-2.07,9.26,-1.79,9.66
18.383,-0.85,9.46,-1.66,9.64
18.393,0.81,8.12,-0.41,8.17
18.403,1.65,5.66,0.73,5.94
18.412,1.47,3.49,2.67,4.63
18.423,1.30,1.40,5.06,5.41
18.433,0.83,-0.64,6.72,6.80
18.443,0.81,-1.82,5.56,5.91
18.453,0.97,-2.39,4.47,5.16
18.463,0.90,-2.49,4.50,5.22
18.473,0.96,-1.57,3.98,4.38
18.482,0.75,-0.85,3.04,3.25
18.493,0.19,-0.59,1.65,1.77
18.502,-0.44,-0.41,0.19,0.63
18.513,-1.20,-0.54,-0.90,1.60
18.522,-2.05,-0.59,-1.17,2.43
18.533,-2.73,-0.77,-0.32,2.85
18.542,-3.20,-1.26,0.77,3.52
18.552,-3.44,-1.74,1.74,4.22
18.562,-3.52,-1.76,2.35,4.58
18.572,-3.51,-1.85,2.44,4.66
18.582,-3.38,-2.11,2.19,4.54
18.592,-3.14,-2.40,1.76,4.32
18.602,-2.74,-2.58,1.26,3.97
18.612,-2.08,-2.65,0.64,3.43
18.622,-1.13,-2.41,-0.04,2.66
18.632,0.10,-1.72,-0.28,1.74
18.642,1.72,-0.94,-0.36,1.99
18.652,3.60,-0.64,-1.22,3.86
18.662,5.21,-0.84,-2.46,5.82
18.672,6.04,-1.40,-2.61,6.73
18.682,6.28,-2.14,-2.58,7.11
18.692,6.30,-2.61,-3.86,7.84
18.702,5.56,-0.81,-5.23,7.67
18.712,4.10,0.80,-4.62,6.23
18.722,2.69,-0.04,-2.66,3.78
18.732,2.08,-0.21,-2.16,3.00
18.742,2.25,0.78,-1.88,3.03
18.752,2.35,2.19,0.13,3.21
18.762,1.64,3.82,2.40,4.80
18.772,-0.23,4.96,3.28,5.95
18.782,-2.69,5.64,3.09,6.97
18.792,-4.20,6.03,2.80,7.87
18.802,-4.46,6.01,1.86,7.71
18.812,-4.39,4.81,0.79,6.56
18.822,-4.10,2.41,1.06,4.87
18.832,-3.45,1.31,1.44,3.96
18.842,-2.78,1.09,1.55,3.36
18.852,-2.27,0.92,1.57,2.91
18.862,-2.06,1.13,1.32,2.70
18.872,-2.51,1.62,1.26,3.24
18.882,-3.16,2.12,1.91,4.26
18.892,-3.26,2.68,2.09,4.71
18.902,-3.01,2.94,1.32,4.41
18.912,-2.90,2.20,0.21,3.65
18.922,-2.67,0.65,-0.15,2.75
18.932,-2.15,-1.04,0.18,2.39
18.942,-1.35,-1.69,-0.38,2.20
18.952,-1.09,-1.11,-1.16,1.94
18.962,-1.53,-0.53,-0.50,1.69
18.972,-2.00,-0.08,0.29,2.02
18.982,-1.78,-0.11,0.73,1.93
18.992,-1.29,-0.85,0.03,1.55
19.002,-0.90,-1.21,-0.50,1.59
19.012,-0.20,-0.98,-0.17,1.02
19.022,0.54,-0.88,-0.13,1.04
19.032,1.17,-0.92,-0.16,1.50
19.042,1.56,-0.94,-0.19,1.83
19.052,1.72,-0.91,-0.28,1.97
19.062,1.66,-0.89,-0.28,1.90
19.072,1.51,-0.93,-0.33,1.80
19.082,1.46,-0.96,-0.38,1.79
19.092,1.47,-1.04,-0.53,1.87
19.102,1.42,-1.11,-0.78,1.96
19.112,1.37,-1.20,-1.20,2.19
19.121,1.32,-1.21,-1.73,2.49
19.132,1.20,-1.19,-2.15,2.74
19.141,0.95,-1.24,-2.44,2.89
19.151,0.65,-1.33,-2.71,3.09
19.161,0.40,-1.46,-2.96,3.32
19.171,0.16,-1.64,-2.92,3.35
19.181,-0.06,-2.01,-2.54,3.23
19.191,-0.05,-2.56,-2.21,3.38
19.201,0.32,-3.21,-1.80,3.69
19.211,0.89,-3.75,-1.37,4.09
19.221,1.09,-4.00,-1.16,4.30
19.232,0.24,-3.49,-1.29,3.73
19.241,-1.27,-2.30,-2.32,3.51
19.251,-2.56,-0.93,-3.96,4.81
19.261,-3.22,0.31,-5.05,6.00
19.271,-2.93,0.67,-4.66,5.54
19.281,-1.74,0.12,-3.97,4.34
19.291,0.04,-0.67,-3.79,3.84
19.301,2.02,-1.22,-3.75,4.43
19.311,3.49,-1.53,-3.39,5.10
19.321,3.84,-1.63,-2.56,4.89
19.331,3.31,-1.41,-1.28,3.82
19.341,2.60,-0.45,0.35,2.66
19.351,1.95,1.13,0.84,2.40
19.361,0.76,3.28,0.95,3.50
19.371,-0.61,4.92,0.96,5.05
19.381,-1.17,6.48,-0.03,6.58
19.391,-1.43,8.62,-0.59,8.76
19.401,-1.12,9.44,-0.54,9.52
19.411,-0.33,8.96,0.19,8.96
19.421,0.85,7.35,0.83,7.44
19.431,1.77,4.79,1.16,5.23
19.441,2.03,2.85,2.34,4.21
19.451,1.57,1.06,4.33,4.72
19.461,0.90,-0.63,5.42,5.53
19.471,0.52,-1.52,4.35,4.64
19.481,-0.01,-2.03,4.03,4.51
19.491,-0.36,-1.64,3.72,4.08
19.501,-0.29,-0.82,3.02,3.14
19.511,-0.16,-0.54,2.26,2.33
19.521,-0.13,-0.57,1.35,1.47
19.531,-0.27,-0.52,0.35,0.68
19.541,-0.63,-0.55,-0.30,0.89
19.551,-1.22,-0.83,-0.13,1.48
19.561,-1.80,-1.20,0.31,2.19
19.571,-2.37,-1.48,1.00,2.97
19.581,-2.90,-1.49,1.70,3.67
19.591,-3.18,-1.65,2.02,4.11
19.601,-3.23,-1.74,1.91,4.13
19.611,-3.11,-1.85,1.58,3.95
19.621,-2.93,-2.02,1.25,3.78
19.631,-2.62,-2.15,0.87,3.50
19.641,-1.96,-2.13,0.44,2.93
19.651,-0.89,-1.86,-0.00,2.06
19.661,0.51,-1.30,-0.08,1.40
19.671,2.27,-0.70,-0.29,2.39
19.681,4.07,-0.60,-1.37,4.33
19.691,5.40,-1.16,-2.32,5.99
19.701,6.02,-2.02,-2.03,6.66
19.711,6.00,-2.95,-2.34,7.08
19.721,5.53,-2.92,-3.92,7.38
19.731,4.26,-0.71,-4.90,6.53
19.741,2.95,-0.02,-2.91,4.15
19.751,1.89,-0.81,-1.08,2.32
19.761,1.41,-0.62,-1.00,1.84
19.770,1.28,0.19,-0.76,1.50
19.781,1.11,1.46,0.82,2.01
19.791,0.66,3.20,2.43,4.07
19.800,-0.40,4.34,2.78,5.17
19.811,-1.87,5.11,2.22,5.88
19.821,-2.62,6.02,1.80,6.81
19.830,-2.38,6.86,1.86,7.49
19.841,-1.82,6.68,2.12,7.24
19.851,-1.85,4.84,2.46,5.73
19.861,-2.68,2.71,2.21,4.41
19.870,-3.55,1.54,1.92,4.32
19.880,-3.86,0.77,1.93,4.39
19.890,-3.67,0.52,1.57,4.03
19.900,-3.67,0.41,1.06,3.85
19.911,-3.76,0.62,0.66,3.86
19.920,-3.77,1.46,0.43,4.06
19.930,-4.19,2.74,0.93,5.10
19.940,-3.99,3.03,0.45,5.03
19.950,-3.48,2.27,-0.96,4.27
19.960,-2.28,0.74,-1.16,2.66
19.970,-1.07,-1.01,-0.62,1.60
19.980,-0.75,-1.42,-0.54,1.69
19.990,-0.96,-1.04,-0.52,1.50
20.000,-1.44,-0.81,-0.78,1.83
20.010,-1.86,-0.61,0.17,1.96
20.020,-2.02,-1.46,1.15,2.75
20.030,-1.28,-0.31,-1.19,1.77
20.040,-0.50,-0.27,-0.70,0.90
20.050,0.45,-0.27,-0.98,1.11
20.060,1.23,-0.61,-0.56,1.48
20.070,1.84,-1.09,0.02,2.14
20.080,2.22,-1.23,0.11,2.54
20.090,2.15,-1.17,0.19,2.45
20.100,1.89,-1.15,0.33,2.23
20.110,1.70,-1.12,0.17,2.04
20.120,1.62,-1.20,-0.03,2.01
20.130,1.59,-1.46,-0.18,2.17
20.140,1.54,-1.68,-0.64,2.37
20.150,1.20,-1.57,-1.52,2.49
20.160,0.62,-1.38,-2.23,2.69
20.170,0.12,-1.15,-2.70,2.94
20.180,0.12,-0.86,-2.76,2.89
20.190,0.23,-0.66,-2.72,2.81
20.200,0.04,-0.84,-2.64,2.77
20.210,-0.34,-1.29,-2.35,2.70
20.220,-0.62,-1.45,-2.19,2.70
20.230,-0.71,-2.78,-2.04,3.52
20.240,-0.76,-4.30,-1.42,4.60
20.250,-0.62,-4.86,-1.04,5.01
20.260,-0.52,-4.74,-0.83,4.84
20.270,-0.84,-3.73,-1.10,3.98
20.280,-1.68,-1.76,-2.09,3.21
20.290,-2.36,0.06,-3.01,3.82
20.300,-2.01,1.09,-3.53,4.21
20.310,-0.94,1.12,-3.51,3.81
20.320,0.48,0.55,-3.10,3.19
20.330,2.04,0.18,-2.54,3.26
20.340,3.28,0.25,-1.88,3.79
20.350,3.48,0.57,-1.07,3.68
20.360,2.75,0.74,-0.66,2.92
20.370,1.73,0.91,-0.49,2.01
20.380,1.00,1.33,-0.37,1.71
20.390,0.34,1.92,-0.14,1.95
20.400,-0.22,2.24,0.37,2.29
20.410,-0.43,2.56,1.02,2.80
20.419,-0.53,2.83,1.79,3.39
20.430,-1.18,3.53,1.92,4.19
20.439,-1.92,4.01,1.77,4.78
20.450,-1.92,4.33,1.15,4.87
20.459,-1.03,4.26,0.69,4.44
20.470,0.01,3.52,0.17,3.52
20.480,0.57,3.42,-0.54,3.51
20.490,-0.35,2.56,-0.41,2.61
20.500,-0.87,1.49,0.92,1.96
20.509,-0.48,1.00,3.07,3.27
20.520,0.34,0.37,4.51,4.54
20.529,2.59,0.04,5.63,6.20
20.539,4.08,0.55,5.32,6.73
20.550,2.83,0.70,3.57,4.61
20.559,1.32,0.43,2.92,3.23
20.569,0.49,-0.29,2.18,2.25
20.579,-0.78,-1.60,0.84,1.97
20.589,-2.17,-2.89,0.32,3.62
20.599,-3.13,-2.59,0.93,4.17
20.609,-2.23,-1.57,1.19,2.97
20.619,0.17,-1.27,1.27,1.80
20.629,-0.11,-0.58,0.58,0.83
20.639,-1.40,-0.34,0.37,1.49
20.649,-1.71,-0.07,0.81,1.89
20.659,-1.66,0.19,1.04,1.97
20.669,-1.67,0.05,1.00,1.95
20.679,-1.71,-0.15,0.88,1.93
20.689,-1.50,-0.40,0.44,1.61
20.699,-1.21,-0.45,-0.60,1.42
20.709,-0.35,-0.18,-1.63,1.67
20.719,1.29,0.65,-1.68,2.22
20.729,2.13,0.98,-1.85,2.99
20.739,2.42,1.46,-2.34,3.67
20.749,2.65,2.46,-2.60,4.45
20.759,3.17,2.76,-2.32,4.80
20.769,3.51,2.83,-1.77,4.84
20.779,3.77,3.27,-0.95,5.08
20.789,3.53,3.61,-0.19,5.06
20.799,2.49,3.65,0.13,4.42
20.809,1.71,3.13,0.14,3.57
20.819,0.73,2.46,0.53,2.62
20.829,0.29,2.66,1.43,3.04
20.839,0.30,2.80,2.97,4.09
20.849,-0.42,2.68,4.12,4.93
20.859,-1.38,2.02,4.23,4.88
20.869,-1.58,2.12,3.36,4.28
20.879,-2.34,3.63,2.54,5.01
20.889,-2.88,4.33,0.78,5.26
20.899,-2.63,3.88,-0.28,4.70
20.909,-2.21,3.94,0.62,4.56
20.919,-1.81,3.27,0.92,3.85
20.929,-1.72,2.51,0.47,3.08
20.939,-1.86,2.10,0.71,2.89
20.949,-1.46,1.27,-0.17,1.94
20.959,-1.31,0.98,-0.93,1.89
20.969,-1.28,1.19,-1.17,2.11
20.979,-1.59,1.00,-0.36,1.91
20.989,-2.15,0.28,0.14,2.18
20.999,-2.66,-0.41,-0.06,2.69
21.009,-3.10,-0.54,-0.31,3.16
21.019,-3.32,-0.29,-0.81,3.43
21.029,-3.43,-0.31,-1.10,3.62
21.039,-3.24,-0.15,-1.43,3.54
21.049,-2.71,0.69,-1.74,3.29
21.059,-1.92,1.19,-1.51,2.71
21.069,-1.22,1.11,-0.92,1.89
21.079,-1.10,0.85,-0.37,1.44
21.089,-1.01,0.69,-0.29,1.26
21.099,-0.80,0.92,-0.40,1.29
21.109,-0.51,1.47,-0.75,1.72
21.118,-0.45,2.02,-0.79,2.22
21.129,-0.41,2.62,-0.95,2.82
21.138,-0.34,3.08,-0.98,3.25
21.148,0.24,3.00,-0.50,3.05
21.158,1.10,1.81,-0.44,2.16
21.168,1.83,0.84,-0.53,2.08
21.178,2.02,0.29,-0.89,2.23
21.188,1.40,0.49,-1.46,2.08
21.199,0.73,0.64,-1.85,2.09
21.208,-0.35,0.27,-1.77,1.82
21.218,-1.66,-0.63,-2.01,2.68
21.228,-2.66,-1.15,-1.50,3.26
21.238,-2.98,-1.70,-0.79,3.52
21.249,-2.81,-2.10,0.50,3.54
21.258,-2.16,-2.14,1.57,3.43
21.268,-1.16,-1.76,1.85,2.81
21.278,-0.74,-1.49,1.72,2.39
21.288,-0.49,-1.99,1.63,2.62
21.298,-0.65,-2.45,1.61,3.01
21.308,-0.76,-2.88,1.77,3.47
21.318,-0.85,-2.49,2.46,3.61
21.328,-1.14,-1.69,2.55,3.27
21.338,-1.06,-1.22,1.94,2.53
21.349,-0.90,-0.63,2.35,2.59
21.358,-0.66,0.02,2.52,2.60
21.368,-0.56,0.51,2.24,2.37
21.378,-0.49,0.86,2.77,2.94
21.388,-0.44,1.02,3.07,3.27
21.398,-0.30,1.01,2.87,3.05
21.409,-0.22,0.88,2.90,3.04
21.418,-0.22,1.00,2.97,3.14
21.428,-0.25,1.17,2.20,2.50
21.438,-0.25,0.57,1.70,1.81
21.448,-0.66,0.37,1.57,1.74
21.458,-1.17,0.47,0.67,1.43
21.469,-1.75,0.27,-0.27,1.79
21.478,-2.41,-0.59,-1.64,2.98
21.488,-2.15,-1.46,-2.84,3.85
21.498,-1.51,-1.24,-3.03,3.61
21.508,-0.31,-0.60,-1.91,2.02
21.518,1.03,0.06,-1.26,1.63
21.528,1.90,1.69,-0.59,2.61
21.538,2.33,2.80,-1.16,3.82
21.548,1.89,2.78,-2.68,4.30
21.558,1.17,2.26,-3.42,4.26
21.568,0.20,1.24,-3.53,3.75
21.578,-0.02,0.11,-3.60,3.61
21.588,0.23,-0.49,-3.40,3.44
21.598,0.55,-0.92,-3.60,3.76
21.608,0.30,-0.55,-3.81,3.86
21.618,1.67,0.40,-3.56,3.95
21.628,6.15,1.91,-2.78,7.01
21.638,4.20,1.93,-0.88,4.71
21.648,-0.23,-0.56,-1.16,1.31
21.658,-3.09,-1.94,0.11,3.65
21.668,-4.44,-2.31,6.51,8.21
21.678,-4.84,-2.63,1.51,5.72
21.688,-6.66,-1.12,-0.29,6.76
21.698,-6.27,0.65,0.78,6.35
21.708,-4.02,1.76,-0.96,4.49
21.718,2.27,4.51,-1.51,5.27
21.727,11.32,8.16,-2.42,14.17
21.737,6.70,6.05,-4.72,10.18
21.748,-3.94,1.01,-2.52,4.79
21.758,-5.14,-0.57,-0.74,5.23
21.767,-2.65,0.14,-0.61,2.73
21.778,-0.26,1.00,-0.61,1.20
21.788,-0.06,0.26,-0.84,0.88
21.798,-0.55,-0.53,0.84,1.13
21.808,-0.59,-0.57,2.14,2.29
21.818,-0.19,-1.27,1.49,1.96
21.827,-0.03,-1.26,0.79,1.49
21.838,0.82,-0.83,-0.42,1.24
21.848,1.18,0.14,-2.18,2.48
21.857,1.47,1.63,-3.08,3.78
21.867,1.58,2.31,-3.24,4.28
21.877,1.13,2.31,-2.35,3.49
21.888,0.26,1.16,-0.65,1.35
21.897,-0.10,-0.76,0.91,1.19
21.907,0.24,-2.17,1.16,2.47
21.917,0.32,-3.10,1.17,3.33
21.927,-0.07,-2.87,1.16,3.10
21.937,-0.47,-1.90,1.02,2.21
21.947,-0.55,-0.92,1.82,2.11
21.957,-0.34,-0.66,1.99,2.13
21.967,-0.14,-1.10,1.90,2.20
21.977,0.08,-2.05,1.43,2.50
21.987,0.64,-2.92,-0.09,2.99
21.997,1.32,-3.31,-1.67,3.94
22.007,1.68,-3.27,-2.32,4.34
22.017,1.43,-3.12,-1.54,3.76
22.027,0.80,-2.99,0.10,3.10
22.037,-0.20,-2.96,2.44,3.84
22.047,-2.20,-3.26,5.63,6.87
22.057,-1.08,-2.02,3.91,4.54
22.067,-0.82,-0.34,2.02,2.21
22.077,-1.14,-1.15,0.98,1.89
22.087,-0.62,-1.82,-0.98,2.16
22.097,-0.13,-1.71,-2.26,2.84
22.107,0.51,-1.33,-2.25,2.66
22.117,0.80,-0.81,-1.60,1.96
22.127,0.17,-1.14,-0.63,1.31
22.137,-0.05,-1.83,0.55,1.91
22.147,-0.05,-2.23,1.62,2.76
22.157,-0.10,-2.43,1.92,3.10
22.167,-0.18,-2.20,1.47,2.66
22.177,-0.54,-1.23,1.11,1.75
22.187,-1.02,0.09,0.59,1.18
22.197,-1.41,1.04,0.37,1.79
22.207,-0.96,1.08,-0.42,1.51
22.217,-0.62,0.56,-0.84,1.18
22.227,-0.78,0.03,-0.12,0.79
22.237,-0.84,-0.26,0.72,1.13
22.247,-0.97,-0.25,1.33,1.66
22.257,-1.25,0.42,2.21,2.57
22.267,-1.23,0.88,1.73,2.30
22.277,-0.72,0.91,-0.52,1.27
22.287,-0.32,0.48,-1.86,1.94
22.297,0.09,-0.20,-2.04,2.05
22.307,0.16,-0.68,-1.22,1.41
22.317,0.09,-0.88,0.07,0.89
22.327,-0.14,-0.65,0.99,1.19
22.337,-0.52,-0.13,1.52,1.61
22.347,-0.84,0.44,1.64,1.89
22.357,-0.65,0.55,0.11,0.86
22.367,-0.44,0.39,-1.59,1.69
22.377,-0.81,-0.02,-1.47,1.68
22.387,-0.72,0.06,-1.43,1.60
22.396,-0.56,0.02,-0.99,1.14
22.407,-0.54,-0.14,-0.16,0.58
22.417,-0.39,-0.05,0.37,0.54
22.427,0.19,0.15,0.07,0.25
22.436,0.48,0.30,-0.16,0.59
22.447,0.39,0.20,0.21,0.48
22.457,0.16,0.26,0.31,0.43
22.466,-0.08,0.71,0.35,0.80
22.477,-0.35,0.95,-0.09,1.02
22.487,-0.34,0.79,-0.49,0.99
22.497,0.06,0.47,-0.71,0.85
22.507,0.23,-0.17,-0.69,0.74
