time,ax,ay,az,atotal
0.000,-0.13,-0.08,0.45,0.48
0.010,0.20,-0.09,0.22,0.32
0.020,0.38,-0.40,0.11,0.56
0.030,0.40,-0.23,-0.17,0.50
0.040,0.37,-0.15,-0.22,0.45
0.050,0.32,-0.13,-0.03,0.35
0.060,0.23,0.05,0.17,0.29
0.070,0.12,0.32,0.26,0.43
0.080,0.12,0.37,0.29,0.48
0.090,0.21,0.22,0.22,0.38
0.100,0.31,0.08,0.23,0.40
0.110,0.32,-0.05,0.13,0.35
0.120,0.24,-0.26,-0.10,0.37
0.130,0.22,-0.38,-0.14,0.46
0.140,0.04,-0.33,-0.09,0.35
0.150,-0.13,-0.17,0.16,0.27
0.160,-0.19,0.08,0.33,0.39
0.170,-0.14,0.29,0.50,0.59
0.180,-0.04,0.27,0.59,0.65
0.190,-0.00,0.26,0.29,0.39
0.200,-0.04,0.35,0.01,0.35
0.210,0.12,0.06,0.01,0.13
0.220,0.08,-0.07,-0.20,0.22
0.230,0.04,0.07,-0.06,0.10
0.240,0.02,-0.00,-0.01,0.02
0.250,-0.13,-0.08,0.25,0.29
0.260,-0.30,0.15,0.42,0.54
0.269,-0.40,0.37,0.28,0.61
0.280,-0.22,-0.10,0.41,0.47
0.290,-0.09,-0.41,0.15,0.44
0.300,0.03,-0.41,-0.12,0.43
0.310,0.12,-0.37,-0.56,0.68
0.320,0.52,-0.58,-0.77,1.09
0.330,1.05,-0.71,-0.35,1.31
0.340,1.20,-0.87,0.03,1.49
0.350,1.17,-0.84,0.07,1.44
0.359,1.13,-0.74,0.00,1.35
0.370,1.12,-1.11,-0.10,1.58
0.380,1.16,-1.76,0.03,2.11
0.389,1.26,-2.45,-0.05,2.75
0.400,1.22,-1.36,-0.10,1.83
0.409,1.20,-0.22,0.06,1.22
0.419,1.01,0.68,-0.04,1.21
0.429,0.81,0.87,-0.44,1.27
0.439,0.96,-0.24,-0.95,1.37
0.449,1.32,-2.06,-1.16,2.71
0.459,1.78,-2.16,-1.09,3.00
0.469,1.78,-2.53,-0.07,3.09
0.479,1.09,-2.64,1.23,3.10
0.489,-2.20,-0.36,-0.51,2.29
0.499,-5.29,0.78,-1.26,5.50
0.509,-6.19,0.90,-0.40,6.27
0.519,-5.54,1.87,0.06,5.85
0.529,-3.77,1.46,-0.71,4.10
0.539,-2.13,0.28,-2.62,3.39
0.549,-0.76,0.03,-3.84,3.91
0.559,0.49,0.86,-3.50,3.63
0.569,0.14,1.93,-3.75,4.22
0.579,-0.71,2.32,-3.89,4.58
0.589,-0.72,3.01,-3.47,4.65
0.599,-0.84,4.16,-3.35,5.40
0.609,-1.16,4.98,-3.16,6.01
0.619,-1.99,5.40,-0.77,5.80
0.629,-1.89,5.04,-2.38,5.88
0.639,-0.60,5.03,-4.30,6.65
0.649,0.24,4.50,-4.85,6.62
0.659,1.61,4.46,-4.92,6.83
0.669,2.47,5.06,-4.44,7.17
0.679,3.08,5.20,-3.60,7.04
0.689,3.66,4.88,-3.05,6.82
0.699,4.13,4.86,-2.95,7.03
0.709,4.72,5.15,-2.88,7.56
0.719,5.22,6.38,-4.45,9.37
0.729,3.95,6.07,-2.87,7.79
0.739,3.62,5.30,0.88,6.48
0.749,3.66,6.51,2.54,7.89
0.759,2.48,8.54,4.77,10.10
0.769,1.70,9.77,6.24,11.72
0.779,1.54,8.82,6.66,11.16
0.789,1.58,6.76,7.33,10.10
0.799,2.12,4.76,7.05,8.77
0.809,2.88,2.93,5.42,6.80
0.819,3.20,1.79,5.41,6.53
0.829,2.46,2.19,6.60,7.37
0.838,1.06,2.93,8.34,8.90
0.849,-0.51,3.17,8.96,9.52
0.858,-1.82,4.59,7.97,9.38
0.869,-2.37,5.91,6.93,9.41
0.878,-2.48,5.74,5.30,8.19
0.889,-2.44,4.02,4.49,6.50
0.899,-3.67,2.00,4.20,5.93
0.909,-5.71,0.38,4.22,7.11
0.919,-7.04,-1.03,5.30,8.88
0.928,-7.76,-1.51,5.85,9.84
0.938,-9.18,-0.84,5.67,10.82
0.948,-10.95,0.49,3.78,11.59
0.958,-10.98,0.03,1.96,11.15
0.969,-10.23,-2.01,0.52,10.44
0.978,-9.18,-3.62,-1.05,9.92
0.989,-9.37,-4.99,-1.57,10.73
0.998,-9.33,-5.96,-2.22,11.29
1.009,-9.23,-6.23,-2.89,11.50
1.018,-9.21,-5.52,-3.95,11.44
1.028,-8.53,-4.87,-5.22,11.12
1.038,-7.18,-4.59,-5.70,10.25
1.048,-5.75,-4.39,-6.62,9.80
1.059,-4.15,-4.87,-7.33,9.73
1.068,-2.80,-4.49,-7.75,9.38
1.078,-1.87,-3.94,-8.14,9.23
1.088,-1.57,-4.07,-8.00,9.11
1.098,-1.30,-3.81,-8.17,9.11
1.108,-0.87,-3.39,-8.72,9.40
1.118,-0.37,-3.30,-9.25,9.83
1.128,0.81,-3.40,-8.69,9.37
1.138,1.70,-2.84,-8.23,8.88
1.148,2.10,-1.13,-7.76,8.11
1.158,2.49,0.25,-7.02,7.45
1.168,2.96,1.11,-6.27,7.02
1.178,2.54,2.43,-4.68,5.85
1.188,3.04,2.13,-3.36,5.01
1.198,4.47,2.67,-1.32,5.37
1.208,4.10,3.01,-4.01,6.48
1.218,5.12,3.04,-4.85,7.68
1.228,6.59,6.52,3.81,10.02
1.238,6.54,12.11,8.33,16.09
1.248,7.44,10.70,4.93,13.93
1.258,9.23,4.91,4.00,11.19
1.268,9.43,3.34,4.86,11.12
1.278,7.86,4.28,3.43,9.59
1.288,5.84,4.62,1.98,7.71
1.298,3.37,4.28,1.26,5.59
1.308,1.17,4.47,1.29,4.80
1.318,-0.90,4.76,1.82,5.17
1.328,-2.60,3.76,1.80,4.91
1.338,-2.97,1.53,1.59,3.70
1.348,-2.06,-0.14,1.29,2.44
1.358,-1.23,-0.86,0.64,1.63
1.368,-0.19,-1.07,-0.08,1.09
1.378,0.35,-1.30,-1.71,2.18
1.387,0.55,-2.10,-3.69,4.28
1.398,0.85,-2.48,-3.33,4.24
1.408,0.28,-1.64,-3.58,3.95
1.418,-0.02,-0.85,-4.31,4.39
1.428,0.44,-1.07,-3.83,4.00
1.438,0.43,-1.35,-2.73,3.07
1.448,0.39,-1.61,-1.48,2.22
1.458,0.81,-1.86,-0.21,2.04
1.468,0.94,-0.65,1.08,1.57
1.478,-0.21,0.37,0.90,0.99
1.488,-1.57,-0.48,0.72,1.79
1.498,-2.58,-1.85,0.56,3.22
1.507,-3.48,-2.30,-0.89,4.27
1.517,-4.15,-1.66,-1.32,4.66
1.527,-3.79,-0.85,-0.37,3.90
1.537,-3.40,0.26,-0.01,3.41
1.547,-2.86,0.79,0.29,2.98
1.557,-1.66,0.90,0.28,1.91
1.567,-0.73,1.22,0.55,1.53
1.577,-0.43,1.51,1.24,2.00
1.587,-0.61,2.08,2.53,3.33
1.597,-0.98,2.02,2.31,3.22
1.607,-0.65,0.81,1.17,1.56
1.617,-0.65,0.07,0.61,0.89
1.627,-0.84,-0.42,0.55,1.09
1.637,-0.47,-1.00,0.55,1.23
1.647,0.11,-1.44,0.07,1.44
1.657,2.04,-0.84,-0.57,2.28
1.667,3.26,1.03,-0.41,3.45
1.677,2.75,1.07,-1.22,3.19
1.687,2.09,0.42,1.00,2.35
1.697,0.87,-0.32,2.59,2.75
1.707,0.03,-1.80,2.67,3.22
1.717,-0.01,-3.25,1.47,3.57
1.727,0.78,-3.57,-0.96,3.78
1.737,1.29,-4.47,-1.42,4.86
1.747,1.51,-4.39,-0.07,4.64
1.757,1.58,-2.95,1.46,3.65
1.767,1.69,-1.09,2.97,3.58
1.777,2.12,0.59,3.67,4.28
1.787,2.44,1.39,2.81,3.97
1.797,2.02,0.73,1.18,2.45
1.807,0.69,-0.14,-1.25,1.43
1.817,-0.92,-0.32,-2.06,2.28
1.827,-2.34,-0.33,-0.84,2.51
1.837,-3.17,-0.07,0.54,3.22
1.847,-3.00,1.32,1.87,3.77
1.857,-2.47,2.60,1.68,3.96
1.867,-2.23,2.58,0.47,3.44
1.877,-2.06,2.44,-1.74,3.63
1.887,-1.59,2.02,-3.26,4.15
1.897,-1.45,1.40,-2.72,3.38
1.907,-1.65,1.18,-1.30,2.41
1.917,-1.75,1.02,-0.35,2.05
1.927,-1.50,0.68,0.34,1.68
1.937,-0.89,0.02,-0.46,1.00
1.947,-0.01,-1.11,-1.40,1.78
1.957,0.45,-1.27,-0.09,1.35
1.967,0.23,-0.73,0.36,0.85
1.977,0.20,-0.18,0.25,0.36
1.987,0.07,0.44,0.50,0.67
1.997,-0.10,0.53,0.21,0.58
2.007,-0.37,0.17,0.02,0.41
2.017,-0.61,-0.25,0.22,0.70
2.027,-0.62,-0.55,0.66,1.06
2.037,-0.43,-0.58,0.88,1.14
2.047,-0.27,-0.79,0.16,0.85
2.057,-0.42,-0.30,1.07,1.19
2.067,2.84,2.56,0.50,3.85
2.077,3.07,3.64,1.87,5.12
2.086,1.07,1.54,-1.74,2.56
2.097,1.44,-0.02,0.18,1.45
2.107,1.52,-0.98,2.46,3.05
2.116,0.88,-1.88,0.57,2.15
2.126,0.64,-2.95,-0.92,3.16
2.136,-0.38,-2.83,-1.09,3.05
2.146,-1.71,-3.50,-1.39,4.14
2.157,-1.48,-4.28,-0.87,4.61
2.166,-0.28,-4.21,0.16,4.22
2.176,1.27,-2.16,1.47,2.90
2.187,1.90,0.84,2.55,3.30
2.196,1.73,2.87,2.97,4.48
2.206,1.41,3.35,2.75,4.56
2.216,-0.13,2.27,1.58,2.77
2.226,-1.82,0.67,0.77,2.09
2.236,-3.00,-0.98,1.50,3.49
2.246,-3.64,-2.68,0.60,4.56
2.256,-2.73,-2.64,0.18,3.80
2.266,-1.60,-0.05,-0.14,1.61
2.276,-0.78,3.00,-2.87,4.23
2.286,-0.22,3.53,-5.67,6.68
2.296,0.44,1.69,-8.31,8.49
2.306,1.06,0.62,-6.55,6.67
2.316,0.32,1.15,-4.96,5.11
2.326,-0.37,1.58,-2.06,2.63
2.336,-0.15,3.07,3.65,4.77
2.346,-0.11,3.42,6.07,6.97
2.356,0.58,1.20,4.43,4.62
2.366,1.42,-0.95,3.94,4.30
2.376,1.30,-0.75,4.55,4.79
2.386,1.06,-0.47,2.47,2.73
2.396,0.51,-1.22,0.04,1.32
2.406,0.03,-1.61,-2.02,2.58
2.416,-0.36,-1.54,-3.21,3.57
2.426,-0.67,-1.42,-3.66,3.98
2.436,-0.91,-1.13,-3.00,3.33
2.446,-1.43,-0.02,-1.47,2.05
2.456,-1.64,0.98,-1.09,2.20
2.466,-1.50,1.41,-1.86,2.78
2.476,-1.28,1.98,-2.14,3.18
2.486,-1.19,2.55,-0.97,2.98
2.496,-1.11,2.52,0.78,2.86
2.506,-0.78,2.12,1.82,2.90
2.516,-0.05,1.33,3.11,3.38
2.526,0.65,0.40,4.08,4.15
2.536,0.62,-0.68,3.60,3.71
2.546,0.10,-2.58,1.19,2.84
2.556,-0.33,-3.49,2.52,4.32
2.566,-0.91,-3.68,3.29,5.02
2.576,-0.99,-4.66,2.85,5.55
2.586,-0.66,-5.61,2.58,6.21
2.596,0.03,-5.24,2.91,6.00
2.605,0.64,-4.12,1.64,4.48
2.616,1.31,-2.38,-2.52,3.70
2.626,2.35,-1.63,-5.81,6.47
2.636,2.11,-2.17,-6.83,7.47
2.645,1.53,-2.27,-4.53,5.29
2.656,0.05,-1.96,-2.65,3.30
2.665,-1.09,-1.89,-0.49,2.23
2.676,-1.91,-2.85,0.28,3.45
2.685,-2.42,-2.51,-0.21,3.49
2.695,-2.37,-0.21,-0.04,2.38
2.705,-1.65,2.91,-0.16,3.35
2.715,-0.18,5.61,0.21,5.62
2.725,0.86,5.12,0.99,5.28
2.735,0.67,4.06,1.16,4.27
2.745,-0.01,4.46,-0.05,4.46
2.755,-0.45,4.56,0.24,4.58
2.765,-0.79,4.02,1.53,4.37
2.775,-1.60,2.82,2.20,3.92
2.785,-2.11,1.95,1.31,3.16
2.795,-2.23,1.58,0.07,2.73
2.805,-1.83,1.30,-1.04,2.47
2.815,-1.27,1.28,-2.08,2.75
2.825,-1.01,1.12,-2.11,2.59
2.835,-0.64,0.76,-1.36,1.68
2.845,-0.25,0.56,-1.02,1.19
2.855,-0.33,0.04,-1.46,1.50
2.865,0.30,-0.19,-1.71,1.75
2.875,1.09,0.21,-1.84,2.15
2.885,1.42,0.95,-1.97,2.61
2.895,1.40,1.70,-1.07,2.45
2.905,1.17,2.77,0.90,3.14
2.915,0.86,3.53,2.40,4.35
2.925,0.47,2.27,1.98,3.05
2.935,0.31,0.67,1.83,1.98
2.945,0.14,0.15,1.30,1.32
2.955,0.24,-0.05,0.12,0.28
2.965,0.82,-0.41,-1.01,1.36
2.975,1.64,-0.60,-1.91,2.59
2.985,1.89,-0.71,-2.53,3.24
2.995,1.94,-0.63,-1.89,2.78
3.005,1.34,-0.44,-0.72,1.58
3.015,0.50,-0.84,0.30,1.03
3.025,0.31,-1.97,0.31,2.02
3.035,0.66,-2.95,-0.05,3.02
3.045,0.87,-3.49,-0.62,3.65
3.055,0.86,-3.80,-0.94,4.01
3.065,0.47,-3.38,0.05,3.41
3.075,-0.42,-2.53,1.49,2.97
3.085,-0.99,-1.88,1.42,2.55
3.095,-0.59,-1.41,1.00,1.82
3.105,0.01,-1.69,0.14,1.69
3.115,0.34,-2.01,-0.88,2.22
3.124,0.36,-2.14,-1.45,2.61
3.135,-0.10,-1.73,-0.67,1.85
3.144,-0.60,-0.77,1.00,1.40
3.154,-1.34,-0.31,2.75,3.07
3.165,-1.97,-0.18,4.09,4.55
3.175,-1.95,-0.20,4.65,5.04
3.184,-1.17,0.81,3.90,4.15
3.195,-0.24,1.77,1.80,2.54
3.204,0.86,2.06,-1.31,2.59
3.215,1.76,2.28,-3.32,4.40
3.225,1.96,2.00,-2.57,3.80
3.235,0.71,1.08,-0.81,1.53
3.244,-0.94,0.43,0.37,1.09
3.254,-1.68,-0.29,0.55,1.79
3.264,-1.15,0.01,-0.21,1.16
3.274,0.12,1.55,-0.75,1.72
3.284,0.64,2.03,-1.96,2.89
3.294,0.38,1.48,-2.53,2.95
3.304,-0.43,0.60,-1.24,1.44
3.314,-1.23,0.27,0.95,1.58
3.324,-2.04,0.32,2.72,3.42
3.334,-2.61,0.66,4.41,5.17
3.344,-2.74,1.05,5.21,5.98
3.354,-2.49,0.94,5.02,5.68
3.364,-2.07,0.39,4.04,4.55
3.374,-1.51,0.13,1.96,2.48
3.384,-0.45,0.29,-0.03,0.54
3.394,-0.01,-0.42,-1.69,1.74
3.404,-0.30,-1.74,-2.65,3.19
3.414,-0.03,-2.35,-2.61,3.51
3.424,0.13,-2.29,-1.89,2.98
3.434,0.39,-2.13,-0.60,2.25
3.444,0.80,-1.60,0.09,1.79
3.454,0.95,-0.55,-0.18,1.12
3.464,1.00,0.52,-0.64,1.30
3.474,1.08,0.76,-1.30,1.85
3.484,1.28,0.26,-1.42,1.93
3.494,1.31,-0.78,-1.55,2.17
3.504,1.28,-1.75,-1.54,2.66
3.514,1.26,-2.22,-1.41,2.91
3.524,1.47,-2.03,-1.14,2.76
3.534,1.56,-1.19,-0.77,2.11
3.544,1.11,-0.18,-0.81,1.39
3.554,0.85,0.96,0.11,1.29
3.564,0.92,2.72,1.03,3.06
3.574,0.90,1.82,1.37,2.45
3.584,1.10,1.57,0.01,1.92
3.594,1.49,1.57,0.28,2.18
3.604,0.80,-0.97,0.14,1.26
3.614,0.44,-1.77,-0.50,1.89
3.624,-0.12,-3.07,-1.14,3.27
3.634,-0.45,-2.94,-1.25,3.23
3.644,-0.42,-0.84,-1.10,1.45
3.654,-0.70,1.07,0.75,1.48
3.664,-1.64,1.61,1.15,2.58
3.674,-2.64,2.15,1.16,3.59
3.684,-2.64,2.37,1.60,3.89
3.693,-2.73,1.06,0.81,3.04
3.704,-2.84,-0.43,0.18,2.88
3.714,-2.57,-1.19,-0.25,2.84
3.724,-1.85,-1.52,-0.72,2.50
3.734,-0.86,-1.17,-1.34,1.97
3.744,0.25,0.22,-1.21,1.26
3.753,1.01,1.31,0.01,1.65
3.764,1.16,1.04,0.57,1.66
3.773,1.20,0.49,0.72,1.48
3.784,1.28,0.42,0.87,1.60
3.793,0.67,0.11,1.04,1.24
3.803,-0.55,-0.57,1.27,1.50
3.813,-1.22,-0.13,1.39,1.86
3.824,-1.37,0.89,0.82,1.83
3.833,-1.49,1.27,0.53,2.03
3.843,-1.42,1.41,0.28,2.02
3.853,-1.12,1.11,0.26,1.60
3.863,-0.95,0.59,-0.41,1.19
3.873,-1.05,-0.02,-1.37,1.73
3.883,-1.12,0.17,-1.59,1.95
3.893,-0.85,0.64,-1.41,1.77
3.903,-0.24,-0.52,-1.39,1.51
3.913,0.11,-1.88,-1.40,2.35
3.923,-0.07,-2.98,-1.09,3.17
3.933,-0.71,-2.84,-0.62,3.00
3.943,-1.45,-2.16,-0.30,2.62
3.953,-1.53,-1.75,-0.12,2.32
3.963,-1.78,-1.73,-0.10,2.48
3.973,-1.97,-1.02,-0.14,2.23
3.983,-1.95,0.79,0.97,2.32
3.993,-2.32,1.94,1.58,3.42
4.003,-2.55,1.98,1.65,3.63
4.013,-2.05,1.02,0.81,2.43
4.025,-1.14,-0.32,0.46,1.27
4.033,-0.53,-1.15,0.34,1.31
4.043,-0.38,-1.05,-0.26,1.15
4.053,-0.66,-0.19,-0.33,0.76
4.063,-1.19,0.09,0.03,1.20
4.073,-1.40,0.99,-0.19,1.72
4.083,-0.37,0.82,-1.54,1.78
4.093,0.84,0.24,-1.79,1.99
4.103,1.75,0.53,-0.17,1.84
4.113,1.35,0.77,0.94,1.81
4.123,0.98,0.36,2.74,2.93
4.133,1.19,-0.45,3.53,3.75
4.143,1.68,-1.17,3.45,4.01
4.153,1.87,-1.10,3.68,4.27
4.163,1.87,-0.25,2.81,3.38
4.173,1.90,0.19,1.69,2.55
4.183,1.24,-0.51,0.53,1.45
4.193,0.29,-2.12,-1.38,2.55
4.202,0.04,-3.47,-2.43,4.24
4.213,-0.04,-3.53,-2.64,4.41
4.222,-0.59,-1.75,-2.70,3.27
4.233,0.15,-1.62,-2.30,2.82
4.242,0.80,-0.48,2.32,2.50
4.253,-0.25,3.09,1.69,3.53
4.263,1.12,1.17,-1.36,2.12
4.273,0.44,0.60,-0.69,1.02
4.282,-1.24,2.06,0.44,2.44
4.293,-2.34,2.76,0.63,3.67
4.302,-3.22,1.87,0.97,3.84
4.312,-2.91,1.30,0.81,3.29
4.323,-2.03,1.19,0.76,2.47
4.332,-1.47,0.86,0.81,1.89
4.342,-0.81,0.65,0.69,1.24
4.352,-0.35,1.53,0.48,1.64
4.362,-0.27,2.58,0.34,2.62
4.373,-0.48,3.17,-0.10,3.21
4.382,-0.77,1.42,0.26,1.64
4.392,-1.12,-0.75,0.43,1.42
4.402,-1.24,-1.80,0.14,2.19
4.413,-0.99,-2.25,-0.22,2.47
4.424,0.18,-2.71,0.33,2.73
4.432,1.27,-2.90,0.76,3.26
4.442,2.05,-3.13,1.62,4.08
4.452,2.09,-3.30,2.24,4.50
4.462,1.80,-3.44,2.57,4.66
4.472,2.39,-4.09,2.07,5.17
4.482,2.38,-3.45,1.38,4.42
4.492,1.75,-2.91,1.75,3.82
4.502,1.20,-3.09,2.59,4.20
4.513,0.08,-3.09,2.23,3.81
4.522,-1.08,-1.84,2.37,3.19
4.532,-0.82,0.06,2.06,2.22
4.542,0.11,1.29,-0.50,1.39
4.552,-0.00,0.56,-1.28,1.40
4.562,-0.86,0.87,-1.85,2.22
4.572,-1.27,1.64,-3.14,3.76
4.582,-1.98,2.46,-3.04,4.39
4.592,-2.42,3.02,-2.11,4.41
4.602,-2.51,3.28,-1.09,4.27
4.612,-1.95,2.68,-0.01,3.32
4.622,-0.93,1.85,0.29,2.09
4.632,-0.72,1.20,-0.67,1.55
4.642,-0.96,0.09,-2.07,2.29
4.652,-0.78,-0.77,-2.90,3.10
4.662,-0.87,-0.59,-2.67,2.87
4.672,-1.35,-0.47,-1.81,2.31
4.682,-0.95,-1.37,-1.08,1.98
4.692,0.07,-1.45,-0.62,1.58
4.702,1.59,-0.94,-1.19,2.20
4.712,2.73,-1.50,-2.34,3.90
4.722,2.83,-1.50,-2.09,3.83
4.732,1.24,-1.52,-1.39,2.40
4.742,0.41,-1.13,0.00,1.20
4.752,0.50,0.27,2.00,2.08
4.762,0.78,1.07,2.48,2.81
4.771,0.60,1.67,1.69,2.45
4.781,0.27,1.62,0.72,1.79
4.792,-0.17,0.40,1.20,1.27
4.801,-0.49,0.03,1.09,1.19
4.812,-1.14,0.73,1.79,2.25
4.821,-0.97,1.16,2.04,2.54
4.831,-0.62,0.72,-0.11,0.95
4.841,-1.03,0.10,-1.08,1.49
4.851,-1.05,0.49,-0.64,1.33
4.861,-0.02,1.07,-1.08,1.52
4.871,0.60,0.69,-0.91,1.29
4.881,0.56,0.56,0.25,0.83
4.891,1.22,1.29,1.90,2.60
4.901,1.66,0.32,2.95,3.40
4.911,1.63,-1.05,2.46,3.13
4.921,1.43,-0.80,0.84,1.85
4.931,1.01,-0.68,-1.33,1.80
4.941,0.12,-1.59,-3.28,3.65
4.951,-2.43,-2.79,-1.87,4.15
4.961,-5.50,-1.66,1.16,5.86
4.971,-6.73,1.89,-0.84,7.04
4.981,-4.76,2.48,-0.19,5.37
4.991,-3.10,1.40,-1.77,3.83
5.001,-1.21,0.57,-4.14,4.35
5.011,0.65,0.20,-5.39,5.43
5.021,1.33,-0.19,-4.08,4.30
5.031,1.42,-0.91,-2.75,3.23
5.041,1.77,-1.76,-1.93,3.16
5.051,1.13,-1.32,1.12,2.07
5.061,0.60,-1.11,3.35,3.58
5.071,0.27,-0.82,5.19,5.26
5.081,-1.03,-0.40,5.83,5.93
5.091,-2.41,-0.85,3.77,4.55
5.101,-2.65,-1.65,1.34,3.40
5.111,-1.89,-2.16,-0.83,2.99
5.121,-0.59,-2.68,-2.90,4.00
5.131,0.71,-2.30,-2.25,3.29
5.141,1.28,-1.75,-0.68,2.28
5.151,1.22,-1.41,-0.71,2.00
5.161,0.86,-0.71,-0.76,1.35
5.171,-0.62,-0.23,-1.00,1.20
5.181,-2.08,0.26,-1.28,2.46
5.191,-2.95,0.07,-0.08,2.96
5.201,-3.58,0.75,1.17,3.84
5.211,-3.55,1.09,0.88,3.82
5.221,-2.85,0.46,-0.97,3.04
5.231,-1.79,-0.52,-2.58,3.18
5.241,-0.81,-1.27,-2.63,3.03
5.251,0.54,-2.20,-2.37,3.28
5.261,2.27,-2.70,-1.62,3.88
5.271,3.69,-3.07,1.83,5.14
5.281,4.08,-2.51,2.27,5.30
5.291,3.95,-1.33,-0.37,4.18
5.301,4.44,0.67,-1.48,4.73
5.311,4.17,0.56,-1.87,4.61
5.321,0.65,-2.34,-2.87,3.76
5.331,-3.96,-3.53,-4.28,6.81
5.341,-2.62,1.33,-1.48,3.29
5.351,-3.77,1.90,2.43,4.87
5.360,-3.64,0.66,2.60,4.52
5.370,-2.88,-0.06,1.87,3.43
5.381,-2.27,-0.30,0.66,2.38
5.391,-1.94,-0.23,0.61,2.05
5.400,-2.42,-0.06,0.29,2.43
5.411,-2.27,0.24,1.44,2.70
5.421,-1.38,0.96,2.58,3.08
5.431,-1.54,1.80,0.65,2.46
5.440,-1.42,2.32,-2.40,3.62
5.450,-1.48,1.97,-4.53,5.15
5.460,-1.62,0.62,-5.50,5.77
5.470,-1.29,-0.51,-4.38,4.60
5.480,-0.87,-0.95,-2.36,2.69
5.490,-0.53,-1.96,-0.93,2.23
5.500,-0.48,-2.27,0.41,2.36
5.510,-0.72,-1.21,1.90,2.37
5.520,-0.88,-0.51,0.45,1.11
5.530,-1.26,0.55,-1.92,2.36
5.540,-0.88,1.14,-2.45,2.84
5.550,0.24,0.07,-1.44,1.46
5.560,-0.27,-0.67,-0.52,0.89
5.570,-0.18,-0.82,1.06,1.35
5.580,0.74,-0.28,2.01,2.16
5.590,1.09,0.08,1.95,2.24
5.600,1.24,0.83,0.91,1.75
5.610,1.70,1.26,-0.24,2.13
5.620,1.03,1.19,-1.59,2.23
5.630,0.21,1.03,-1.92,2.19
5.640,-1.19,0.31,-1.38,1.85
5.650,0.67,1.57,-0.37,1.75
5.660,1.29,-2.95,-0.41,3.25
5.670,-0.27,-4.11,-1.21,4.29
5.680,-0.66,-1.10,-2.13,2.49
5.690,-1.00,-0.46,-2.85,3.06
5.700,-0.44,-1.55,-3.89,4.21
5.710,-0.25,0.04,-2.66,2.68
5.720,-2.07,1.46,-1.91,3.18
5.730,-1.23,1.45,-1.69,2.55
5.740,0.12,1.51,-0.80,1.72
5.750,1.16,1.66,-0.33,2.05
5.760,1.61,1.31,0.40,2.11
5.770,1.18,1.45,0.91,2.08
5.780,1.35,1.90,1.77,2.93
5.790,1.09,1.69,2.64,3.32
5.800,0.58,1.86,2.36,3.06
5.810,0.82,1.60,2.20,2.84
5.820,0.13,-0.36,3.06,3.08
5.830,-0.05,-1.04,3.35,3.51
5.840,0.51,-1.42,1.63,2.22
5.850,1.43,-1.36,1.72,2.62
5.860,1.51,-0.89,0.94,1.99
5.870,1.17,-1.35,-0.51,1.86
5.880,1.12,-0.01,0.34,1.17
5.890,0.60,1.19,-0.05,1.33
5.900,-0.07,0.89,-0.58,1.07
5.910,-0.75,-0.39,0.62,1.05
5.920,-0.79,-2.47,2.71,3.75
5.930,0.31,-3.14,3.54,4.74
5.939,1.58,-2.19,5.21,5.87
5.950,2.61,-0.62,6.31,6.86
5.959,2.15,-0.26,3.19,3.86
5.969,0.46,-0.44,-0.23,0.68
5.979,-1.38,1.73,-2.08,3.04
5.989,-2.50,2.33,-3.26,4.72
5.999,-2.89,1.13,-2.70,4.12
6.010,-2.79,0.32,-1.03,2.99
6.020,-1.89,-0.86,0.75,2.21
6.029,0.26,-1.72,2.15,2.77
6.039,2.29,-2.12,2.67,4.10
6.049,2.17,-2.08,0.85,3.12
6.060,0.97,-0.74,-1.45,1.89
6.069,0.12,0.75,-2.68,2.78
6.079,1.02,2.14,-2.10,3.16
6.089,-0.24,-0.06,-0.25,0.36
6.099,0.44,-2.05,0.00,2.09
6.109,0.15,-0.92,0.03,0.93
6.119,-1.09,-1.64,1.09,2.25
6.129,-0.70,-1.67,2.09,2.77
6.139,0.62,-1.30,1.65,2.19
6.149,1.24,-1.05,0.21,1.63
6.159,1.43,-0.87,-1.20,2.06
6.169,1.65,-0.58,-2.27,2.87
6.179,1.58,-0.65,-2.69,3.19
6.189,1.27,-0.76,-2.46,2.87
6.199,0.77,-0.18,-1.73,1.90
6.209,0.33,-0.27,-0.97,1.06
6.219,0.04,-0.63,-0.38,0.74
6.229,-0.11,-0.65,-0.18,0.68
6.239,0.63,0.04,-0.02,0.63
6.249,1.96,1.20,0.82,2.44
6.259,2.89,1.93,-0.48,3.51
6.269,2.98,1.57,-3.64,4.95
6.279,3.82,1.45,-6.42,7.61
6.289,3.76,1.15,-5.61,6.85
6.299,1.55,0.42,-4.22,4.51
6.309,0.75,-0.13,-3.45,3.53
6.319,0.42,0.24,-0.39,0.62
6.329,-0.99,0.68,0.91,1.51
6.339,-0.37,0.59,0.30,0.76
6.349,0.75,-0.20,-0.11,0.78
6.359,0.05,-0.28,-0.88,0.93
6.369,-0.11,1.25,-1.58,2.02
6.379,1.37,2.50,-1.72,3.33
6.389,1.86,2.17,-1.45,3.21
6.399,-1.77,2.50,2.60,4.02
6.409,-0.83,4.99,3.85,6.36
6.419,-1.31,3.06,5.34,6.30
6.429,-2.85,3.90,5.95,7.66
6.439,-2.70,4.27,3.70,6.26
6.449,-1.82,3.29,1.87,4.20
6.459,-0.81,2.01,1.43,2.59
6.469,0.73,0.92,1.58,1.97
6.479,2.01,-0.37,0.73,2.17
6.489,2.89,-2.26,-0.25,3.68
6.499,2.09,-2.69,-0.30,3.42
6.508,0.14,-2.97,-0.27,2.98
6.518,-1.60,-2.80,-0.55,3.27
6.528,-3.89,-2.54,0.33,4.65
6.539,-5.08,-1.72,1.27,5.51
6.548,-4.12,-1.31,1.92,4.73
6.559,-2.75,-1.88,2.57,4.21
6.568,-2.51,-2.89,2.08,4.35
6.579,-0.89,-2.13,2.17,3.17
6.588,-0.89,-1.58,2.66,3.22
6.599,-1.16,-1.30,3.08,3.54
6.609,-1.53,-0.82,2.92,3.40
6.618,-2.51,-0.54,2.61,3.66
6.628,-2.76,-0.54,2.20,3.57
6.638,-2.78,0.09,2.03,3.45
6.649,-1.78,0.41,1.12,2.14
6.658,-1.32,-0.13,-0.08,1.33
6.669,-1.26,-0.09,-0.89,1.54
6.678,-1.34,-0.06,-1.27,1.84
6.688,-1.41,0.43,-0.37,1.52
6.698,-1.08,1.27,1.08,1.98
6.708,-0.77,2.12,1.08,2.50
6.718,-1.43,2.19,0.56,2.67
6.728,-1.73,2.79,0.47,3.32
6.738,-1.73,2.92,0.04,3.40
6.748,-1.89,2.70,-0.09,3.30
6.758,-2.04,2.37,-0.39,3.15
6.768,-1.14,2.06,-0.98,2.55
6.778,-1.03,1.29,-0.05,1.65
6.788,-0.83,0.89,1.34,1.82
6.798,-0.87,-0.88,2.02,2.37
6.808,-0.78,-2.00,2.65,3.41
6.818,-0.73,-2.77,3.58,4.58
6.828,-0.57,-2.97,4.28,5.24
6.838,-0.23,-2.46,4.20,4.87
6.848,-0.51,-1.78,3.32,3.80
6.858,-0.23,-0.63,2.63,2.71
6.868,0.88,-0.46,1.65,1.93
6.878,1.26,-0.92,0.56,1.66
6.888,1.15,-1.09,0.64,1.70
6.898,1.27,-1.00,0.96,1.88
6.908,1.13,-1.24,0.78,1.85
6.918,0.43,-1.47,0.76,1.71
6.928,0.04,-0.77,1.30,1.51
6.938,-0.13,0.59,0.84,1.03
6.948,-0.20,2.00,-1.23,2.36
6.958,-1.07,3.16,-4.53,5.63
6.968,-2.13,2.29,-6.48,7.19
6.978,-2.33,1.75,-4.34,5.23
6.988,-1.58,1.70,-1.36,2.69
6.998,-1.06,1.47,0.41,1.86
7.008,-0.63,0.14,0.84,1.06
7.018,-0.43,-0.51,1.17,1.34
7.028,-0.60,-0.57,1.28,1.52
7.038,-0.47,-0.45,1.73,1.85
7.048,-0.42,-0.97,1.68,1.98
7.058,-0.72,-2.27,0.75,2.49
7.068,-0.45,-1.98,0.62,2.12
7.078,-0.86,-1.41,0.46,1.72
7.088,-0.74,-1.24,0.19,1.46
7.098,-1.46,-0.95,-0.45,1.80
7.108,-1.36,0.21,-0.71,1.55
7.118,0.14,0.46,-0.35,0.60
7.128,1.04,-0.13,0.67,1.25
7.138,0.64,-0.65,1.12,1.45
7.148,-0.70,-0.39,0.46,0.93
7.158,-1.47,0.99,-0.55,1.86
7.168,-0.72,1.66,-1.30,2.23
7.178,0.90,0.86,-1.08,1.65
7.188,1.95,-0.41,-0.07,1.99
7.197,1.29,-0.57,1.26,1.89
7.208,-3.59,-0.11,0.16,3.59
7.217,-5.25,-0.26,-3.89,6.54
7.227,-0.42,2.11,-1.50,2.62
7.237,1.86,0.96,-0.62,2.19
7.247,2.47,-0.98,-0.86,2.80
7.257,2.03,-2.35,-1.69,3.53
7.267,0.99,-2.37,-1.70,3.08
7.277,-0.05,-0.78,0.28,0.83
7.287,-0.97,-0.35,1.64,1.94
7.297,-1.17,-1.45,0.82,2.04
7.307,-0.58,-1.81,-0.74,2.04
7.317,0.50,-0.72,-0.77,1.16
7.327,0.95,-1.14,-1.03,1.80
7.337,1.56,-1.91,-3.00,3.88
7.347,1.90,-1.24,-3.03,3.79
7.357,1.03,-1.00,-1.48,2.06
7.367,0.28,-0.59,-1.77,1.88
7.377,-0.60,0.50,0.35,0.86
7.387,-1.27,1.03,-0.03,1.63
7.397,-1.54,1.32,0.96,2.24
7.407,-1.24,1.16,4.33,4.65
7.417,-0.40,1.49,7.61,7.77
7.427,-0.91,1.17,3.99,4.26
7.437,-0.33,0.72,4.67,4.73
7.447,-0.24,0.25,3.09,3.11
7.457,-0.36,-0.13,1.15,1.21
7.467,0.14,-0.60,-0.45,0.76
7.477,0.35,-0.64,-1.25,1.45
7.487,0.30,-0.52,-1.91,2.01
7.497,0.33,-0.18,-2.34,2.37
7.507,-0.46,0.38,-2.67,2.73
7.517,-6.97,0.57,-4.17,8.15
7.527,-3.90,-2.81,-4.85,6.83
7.537,2.04,-2.25,-2.87,4.18
7.547,2.24,-1.98,-0.59,3.05
7.557,1.44,-1.49,-1.34,2.47
7.567,1.06,-0.33,-1.71,2.04
7.577,0.67,-1.50,-0.34,1.68
7.587,0.60,-2.67,0.08,2.74
7.597,0.99,-4.29,1.29,4.58
7.606,0.59,-5.18,2.42,5.75
7.617,-0.59,-3.82,4.25,5.75
7.627,-0.96,-1.93,3.69,4.28
7.637,-1.47,-0.38,2.02,2.52
7.647,-1.29,-1.46,2.19,2.93
7.657,-0.69,-2.40,2.49,3.52
7.667,-0.11,-5.38,2.51,5.94
7.676,-0.33,-5.12,0.43,5.14
7.686,-0.36,-2.55,1.56,3.01
7.696,-0.24,-2.59,0.23,2.61
7.707,-0.38,-1.32,0.57,1.49
7.717,-1.44,1.63,-1.91,2.89
7.727,-2.43,3.57,-4.42,6.18
7.736,-2.30,2.26,-5.06,6.00
7.747,-0.95,0.70,-2.60,2.86
7.756,-0.11,-0.64,-0.07,0.65
7.767,-1.06,-0.10,-0.92,1.41
7.776,-1.27,-0.78,-0.66,1.63
7.786,-1.30,-1.93,-0.55,2.39
7.796,-1.09,-1.59,-0.37,1.97
7.806,-0.68,1.29,-0.72,1.63
7.816,-0.29,4.24,-0.34,4.26
7.826,-0.04,5.63,-0.72,5.67
7.836,-0.92,6.28,-0.95,6.42
7.846,-1.26,1.55,-0.64,2.10
7.856,-1.26,-0.42,-0.19,1.35
7.866,-1.35,1.64,0.38,2.16
7.876,-0.83,2.63,0.85,2.88
7.886,0.12,2.31,1.23,2.62
7.896,0.70,2.85,1.27,3.20
7.906,0.57,2.40,1.07,2.69
7.916,0.19,1.90,0.57,1.99
7.926,-0.20,1.24,0.00,1.26
7.936,-0.09,0.54,-0.07,0.55
7.946,0.04,0.48,-0.21,0.53
7.956,0.04,0.13,-0.38,0.41
7.966,0.13,-0.36,-0.57,0.69
7.976,0.25,-0.14,-0.72,0.78
7.986,0.54,0.21,-0.81,0.99
7.996,0.70,0.39,-0.82,1.14
8.006,0.77,0.61,-0.86,1.30
8.016,0.74,0.95,-0.59,1.34
8.026,0.72,1.51,-0.30,1.70
8.036,0.99,1.26,-0.60,1.71
8.046,1.27,1.18,-0.47,1.80
8.056,1.70,1.10,-0.47,2.08
8.066,2.10,0.06,-0.37,2.13
8.076,2.35,-0.89,-0.50,2.56
8.086,2.12,-1.47,-0.36,2.60
8.096,4.71,-3.75,0.08,6.02
8.106,1.35,1.02,-1.71,2.41
8.116,1.22,1.15,-2.74,3.21
8.126,1.73,0.90,-3.28,3.81
8.136,1.51,1.13,-2.81,3.38
8.146,1.86,1.44,-2.03,3.11
8.156,1.69,1.71,-2.01,3.14
8.166,1.26,1.97,-2.15,3.18
8.176,0.90,2.59,-1.01,2.92
8.186,0.57,2.86,-0.32,2.93
8.195,0.15,2.88,0.12,2.88
8.206,-0.24,2.59,1.07,2.81
8.216,-0.71,2.02,1.55,2.64
8.226,-0.93,0.88,1.47,1.95
8.236,-1.13,-0.25,1.25,1.70
8.246,-1.35,-0.98,1.26,2.09
8.256,-1.40,-1.68,1.35,2.57
8.266,-1.44,-2.13,1.40,2.93
8.275,-1.65,-1.97,1.49,2.97
8.285,-1.93,-1.60,1.46,2.90
8.295,-2.19,-0.92,1.27,2.69
8.305,-2.36,-0.16,0.96,2.56
8.316,-2.34,0.55,0.46,2.45
8.325,-2.32,1.23,0.13,2.63
8.335,-2.57,1.40,0.02,2.93
8.345,-2.80,0.81,-0.26,2.93
8.355,-2.62,-0.10,-0.76,2.73
8.365,-2.00,-0.97,-1.25,2.56
8.375,-1.07,-1.63,-1.60,2.52
8.385,0.19,-2.11,-1.71,2.73
8.395,1.23,-2.39,-1.92,3.30
8.405,1.72,-2.39,-1.95,3.53
8.415,1.63,-2.22,-1.81,3.30
8.425,1.22,-1.97,-1.49,2.75
8.435,0.70,-1.54,-0.99,1.96
8.445,0.11,-0.86,-0.48,0.99
8.455,-0.55,-0.14,0.00,0.57
8.465,-1.20,0.96,0.02,1.53
8.475,-1.57,2.27,-0.40,2.79
8.485,-1.80,2.82,-0.55,3.39
8.495,-1.82,2.82,-0.65,3.42
8.505,-1.59,2.35,-0.81,2.95
8.515,-0.96,1.54,-0.99,2.07
8.525,-0.20,0.82,-1.15,1.43
8.535,0.54,0.28,-1.37,1.50
8.545,1.17,-0.13,-1.74,2.10
8.555,1.71,-0.31,-2.22,2.82
8.565,2.11,-0.37,-2.52,3.30
8.575,2.32,-0.34,-2.63,3.53
8.585,2.34,-0.27,-2.57,3.48
8.595,2.19,-0.17,-2.41,3.26
8.605,1.89,-0.05,-2.32,2.99
8.615,1.39,0.10,-2.25,2.65
8.625,0.84,0.30,-2.15,2.33
8.635,0.36,0.51,-2.09,2.18
8.645,0.14,0.66,-2.03,2.14
8.655,0.08,0.59,-2.07,2.15
8.665,0.19,0.21,-2.10,2.12
8.675,0.47,-0.28,-2.20,2.27
8.685,0.81,-0.71,-2.28,2.52
8.695,1.08,-0.92,-2.28,2.69
8.705,1.32,-0.90,-2.28,2.78
8.715,1.54,-0.67,-2.26,2.82
8.725,1.68,-0.37,-2.19,2.78
8.735,1.67,-0.13,-2.21,2.77
8.745,1.56,0.02,-2.25,2.74
8.755,1.41,0.08,-2.31,2.71
8.765,1.19,0.09,-2.45,2.72
8.775,0.91,0.21,-2.65,2.81
8.785,0.60,0.49,-2.79,2.89
8.795,0.18,1.08,-3.03,3.22
8.804,-0.02,1.91,-3.20,3.73
8.815,-0.18,2.65,-3.45,4.36
8.824,-0.06,3.17,-3.56,4.77
8.835,0.34,3.18,-3.37,4.65
8.845,1.06,2.90,-2.88,4.23
8.854,1.95,2.63,-2.19,3.94
8.864,2.74,2.66,-1.61,4.15
8.875,3.24,3.20,-1.25,4.72
8.884,2.94,3.95,-1.30,5.09
8.895,1.91,4.48,-1.91,5.23
8.905,0.68,4.41,-2.81,5.28
8.915,-0.44,3.47,-3.41,4.89
8.925,-1.03,1.59,-3.28,3.78
8.934,-1.15,-0.58,-2.54,2.85
8.944,-1.04,-2.47,-1.57,3.11
8.954,-0.95,-3.57,-0.76,3.77
8.964,-0.81,-3.88,0.04,3.96
8.974,-0.63,-3.74,0.90,3.90
8.984,-0.47,-3.31,1.41,3.63
8.994,-0.56,-2.25,1.71,2.88
9.004,-1.29,-0.01,1.96,2.35
9.014,-2.65,2.76,1.73,4.20
9.024,-3.33,5.41,0.97,6.43
9.034,-2.47,6.98,1.03,7.48
9.044,-1.01,7.25,1.94,7.57
9.054,-0.14,6.38,2.85,6.99
9.064,0.22,4.32,2.95,5.24
9.074,0.22,1.65,2.52,3.02
9.084,0.09,-0.84,1.74,1.93
9.094,-0.21,-2.00,0.69,2.13
9.104,-0.36,-2.47,-0.35,2.52
9.114,-0.26,-2.79,-0.90,2.95
9.124,-0.35,-2.64,-1.07,2.87
9.134,-0.34,-2.57,-1.04,2.79
9.144,-0.29,-2.92,-0.88,3.06
9.154,-0.26,-3.42,-0.69,3.50
9.164,-0.12,-4.16,-0.48,4.19
9.174,-0.07,-4.78,-0.19,4.79
9.184,-0.20,-4.98,0.27,4.99
9.194,-0.40,-5.13,0.70,5.19
9.204,-0.63,-5.14,0.96,5.27
9.214,-0.76,-5.06,1.16,5.25
9.224,-0.88,-4.70,1.18,4.92
9.234,-1.00,-4.43,1.21,4.70
9.244,-1.06,-4.04,1.21,4.35
9.254,-0.96,-3.53,1.22,3.86
9.264,-0.58,-3.15,1.19,3.42
9.274,-0.10,-2.84,1.03,3.02
9.284,0.28,-2.20,0.81,2.36
9.294,0.46,-1.03,0.44,1.21
9.304,0.64,0.16,-0.34,0.74
9.313,0.91,1.24,-1.33,2.04
9.324,1.18,2.48,-2.09,3.45
9.334,1.10,3.79,-2.54,4.70
9.344,0.71,5.21,-2.85,5.98
9.353,0.27,5.62,-3.57,6.67
9.364,-0.17,5.19,-4.46,6.85
9.374,-0.09,3.92,-5.21,6.52
9.384,0.51,2.76,-5.39,6.08
9.394,1.46,2.12,-5.15,5.76
9.403,2.34,1.93,-4.62,5.53
9.414,2.81,1.70,-3.70,4.95
9.424,2.52,1.53,-2.49,3.86
9.433,1.27,1.73,-0.93,2.34
9.443,-1.05,3.60,0.20,3.76
9.453,-4.14,9.57,-0.14,10.42
9.463,-5.94,16.22,-1.98,17.39
9.474,-5.32,15.43,-1.10,16.36
9.483,-5.27,7.54,4.02,10.04
9.493,-4.91,0.97,5.91,7.74
9.503,-3.79,-1.87,6.08,7.40
9.513,-2.79,-3.00,6.01,7.27
9.523,-1.99,-3.24,5.38,6.59
9.533,-1.43,-2.94,4.20,5.32
9.543,-1.07,-2.78,2.48,3.87
9.553,-0.72,-2.54,0.76,2.75
9.563,-0.82,-1.97,-0.27,2.15
9.574,-1.98,-1.65,-0.76,2.69
9.583,-3.28,-1.81,-0.88,3.84
9.593,-4.29,-1.75,-0.53,4.67
9.603,-4.22,-1.67,-0.23,4.54
9.613,-3.05,-1.86,0.04,3.57
9.623,-2.26,-2.43,0.33,3.33
9.633,-1.44,-3.22,0.22,3.53
9.643,-0.87,-3.84,-0.05,3.94
9.653,-0.59,-4.61,-0.42,4.67
9.663,-0.58,-5.48,-0.70,5.56
9.673,-0.72,-6.14,-0.93,6.26
9.683,-0.94,-6.30,-1.07,6.46
9.693,-1.28,-5.46,-0.93,5.69
9.703,-1.56,-3.74,-0.72,4.12
9.713,-1.78,-1.55,-0.27,2.37
9.723,-2.11,0.42,0.49,2.21
9.733,-2.24,1.92,1.15,3.17
9.743,-2.15,2.81,1.05,3.69
9.753,-2.04,3.17,0.05,3.77
9.763,-1.56,3.04,-0.86,3.52
9.773,-1.16,2.22,-0.95,2.68
9.783,-1.01,1.04,-1.10,1.82
9.793,-0.88,-0.40,-1.31,1.63
9.803,-0.78,-1.33,-1.61,2.23
9.813,-0.60,-1.87,-2.31,3.03
9.823,-0.45,-1.98,-3.05,3.67
9.833,-0.10,-1.88,-3.51,3.99
9.843,0.54,-1.72,-3.47,3.91
9.853,1.25,-1.16,-3.31,3.72
9.863,1.64,-0.48,-3.23,3.65
9.872,1.87,0.47,-3.25,3.78
9.883,2.12,1.49,-2.86,3.86
9.893,2.21,2.18,-2.49,3.98
9.903,2.23,2.55,-2.46,4.19
9.913,2.12,2.57,-2.86,4.39
9.923,1.99,2.43,-3.49,4.69
9.933,1.82,2.69,-3.79,4.99
9.943,1.57,2.89,-3.68,4.93
9.953,1.71,2.29,-3.47,4.50
9.963,1.92,1.22,-3.10,3.84
9.973,2.27,0.91,-2.72,3.66
9.983,3.01,1.11,-2.15,3.86
9.993,3.01,1.22,-1.51,3.59
10.002,2.60,1.07,-1.43,3.15
10.012,2.05,0.47,-1.62,2.65
10.022,0.89,-0.59,-1.38,1.74
10.032,-0.19,-1.41,-0.31,1.45
10.043,-1.17,-1.94,0.89,2.43
10.052,-2.01,-2.25,1.91,3.57
10.062,-3.00,-2.35,3.17,4.96
10.072,-3.92,-2.02,4.19,6.08
10.083,-4.46,-1.17,4.27,6.29
10.092,-5.49,1.00,3.81,6.75
10.102,-6.94,4.20,3.52,8.85
10.112,-7.22,7.66,2.94,10.93
10.122,-4.99,9.57,2.96,11.19
10.132,-2.01,9.75,3.49,10.55
10.142,0.27,8.71,4.21,9.68
10.152,1.99,6.70,4.83,8.50
10.162,3.35,4.14,4.72,7.12
10.173,3.73,1.60,4.08,5.75
10.182,4.27,-1.74,2.57,5.28
10.192,4.62,-6.44,0.71,7.95
10.202,3.67,-6.22,0.11,7.22
10.212,3.07,-5.34,-1.87,6.44
10.222,3.02,-6.72,-2.45,7.77
10.232,2.66,-7.07,-2.18,7.86
10.242,2.03,-6.55,-1.99,7.14
10.252,1.23,-5.96,-1.34,6.23
10.262,0.40,-5.91,-0.78,5.98
10.272,-0.36,-5.90,-0.19,5.92
10.282,-0.78,-5.40,0.33,5.47
10.292,-0.93,-4.64,0.83,4.80
10.302,-1.13,-3.53,1.15,3.88
10.312,-1.30,-2.39,1.17,2.97
10.322,-1.40,-1.30,1.02,2.16
10.332,-1.40,-0.48,0.92,1.74
10.342,-1.20,-0.08,1.13,1.65
10.352,-0.92,0.11,1.47,1.74
10.362,-0.55,-0.17,1.55,1.66
10.372,-0.13,-0.49,1.26,1.36
10.382,0.17,-0.48,0.73,0.89
10.392,0.48,-0.06,0.16,0.50
10.402,1.01,1.06,-0.66,1.60
10.412,2.08,2.72,-1.57,3.77
10.422,3.29,4.89,-2.38,6.36
10.432,4.54,6.68,-3.33,8.74
10.442,5.04,6.58,-3.84,9.14
10.452,4.06,4.97,-4.20,7.67
10.462,2.44,3.47,-4.62,6.27
10.472,1.42,2.32,-4.65,5.39
10.482,1.26,0.90,-4.43,4.70
10.492,1.31,0.04,-3.31,3.56
10.502,0.82,-0.41,-1.83,2.04
10.512,-0.65,-0.29,-0.60,0.93
10.522,-3.05,2.21,0.46,3.79
10.531,-5.46,8.61,0.87,10.23
10.542,-5.38,15.49,0.09,16.40
10.551,-3.91,14.64,1.74,15.25
10.562,-5.00,7.61,5.31,10.54
10.571,-5.19,1.40,6.01,8.06
10.581,-3.91,-1.50,6.23,7.51
10.591,-2.45,-2.89,5.99,7.09
10.601,-1.30,-3.34,5.18,6.30
10.611,-0.19,-2.39,4.06,4.72
10.621,0.61,-1.22,2.43,2.79
10.631,0.65,-0.54,0.77,1.14
10.641,-0.21,-0.25,-0.56,0.65
10.651,-1.92,-0.42,-1.19,2.30
10.661,-3.56,-0.78,-1.39,3.90
10.671,-4.54,-0.86,-1.20,4.77
10.681,-4.81,-1.28,-0.59,5.01
10.691,-4.11,-1.99,-0.11,4.57
10.701,-2.91,-2.39,0.31,3.78
10.711,-1.93,-2.74,0.99,3.50
10.721,-1.44,-3.30,1.13,3.77
10.731,-1.43,-3.81,0.61,4.11
10.741,-1.55,-4.60,0.14,4.86
10.751,-1.66,-5.17,-0.23,5.43
10.761,-1.58,-5.22,-0.47,5.47
10.771,-1.55,-4.44,-0.55,4.74
10.781,-1.48,-3.03,-0.47,3.41
10.791,-1.36,-1.59,-0.25,2.11
10.801,-1.34,-0.65,-0.03,1.49
10.811,-1.36,-0.09,-0.06,1.36
10.821,-1.36,0.14,-0.18,1.38
10.831,-1.22,0.63,-0.11,1.38
10.841,-0.98,1.51,-0.07,1.80
10.851,-0.83,2.04,-0.31,2.22
10.861,-0.90,1.77,-0.60,2.07
10.871,-0.96,0.83,-1.09,1.67
10.881,-1.15,-0.43,-1.55,1.98
10.891,-1.29,-1.42,-2.31,3.00
10.901,-1.18,-1.99,-3.35,4.08
10.911,-0.87,-2.47,-4.17,4.93
10.921,-0.13,-2.66,-4.45,5.18
10.931,0.80,-2.49,-4.24,4.98
10.941,1.41,-1.99,-3.70,4.43
10.951,1.65,-1.10,-3.20,3.76
10.961,1.93,0.05,-2.75,3.36
10.971,2.46,1.09,-2.28,3.53
10.981,3.06,1.73,-2.30,4.20
10.991,3.76,1.88,-2.91,5.11
11.001,4.23,1.65,-3.56,5.76
11.011,4.07,1.84,-3.98,5.98
11.021,3.43,2.28,-3.87,5.65
11.031,2.99,2.14,-3.42,5.02
11.041,2.90,1.15,-2.68,4.11
11.051,3.45,0.44,-2.02,4.03
11.061,3.61,0.54,-1.08,3.81
11.071,2.59,0.88,-0.57,2.80
11.081,1.74,1.09,-0.98,2.28
11.091,0.80,0.68,-1.08,1.50
11.101,-0.56,0.01,-0.33,0.65
11.111,-2.01,-0.55,0.75,2.22
11.121,-2.99,-0.87,1.84,3.62
11.131,-4.03,-1.13,2.85,5.06
11.141,-5.32,-0.81,3.84,6.61
11.151,-6.44,0.30,3.99,7.58
11.161,-7.29,2.42,3.75,8.55
11.171,-7.87,5.59,3.78,10.36
11.180,-7.24,8.34,3.57,11.60
11.190,-4.82,9.75,3.53,11.44
11.202,-1.68,10.29,3.54,11.01
11.210,0.91,9.71,4.09,10.58
11.221,2.76,8.19,4.97,9.97
11.230,4.26,5.89,5.24,8.96
11.240,4.90,3.45,4.97,7.79
11.250,5.24,0.22,3.77,6.46
11.260,5.59,-5.15,1.49,7.74
11.271,4.52,-6.87,0.33,8.23
11.280,3.32,-5.38,-1.75,6.56
11.290,3.24,-7.22,-2.90,8.43
11.300,2.83,-7.65,-2.44,8.51
11.310,2.10,-7.25,-2.23,7.87
11.320,1.36,-6.84,-1.71,7.18
11.330,0.57,-6.87,-1.20,7.00
11.340,-0.29,-6.58,-0.60,6.61
11.350,-0.79,-6.34,-0.07,6.39
11.360,-1.03,-5.75,0.39,5.85
11.370,-1.12,-4.82,0.86,5.03
11.380,-1.21,-3.81,1.11,4.15
11.390,-1.29,-2.84,1.28,3.38
11.400,-1.40,-2.05,1.36,2.83
11.410,-1.33,-1.41,1.44,2.41
11.420,-0.95,-0.79,1.81,2.19
11.430,-0.42,-0.35,2.18,2.25
11.440,0.11,-0.10,2.32,2.32
11.450,0.44,0.37,1.85,1.94
11.460,0.56,1.53,1.02,1.92
11.470,0.83,2.66,-0.03,2.79
11.480,1.44,3.77,-1.57,4.33
11.490,2.37,5.83,-2.88,6.92
11.500,3.85,7.22,-3.87,9.05
11.510,4.83,6.07,-4.40,8.92
11.520,3.85,4.14,-4.63,7.31
11.530,1.98,2.53,-4.87,5.83
11.540,0.71,1.45,-5.03,5.28
11.550,0.64,0.39,-4.95,5.01
11.560,1.19,-0.30,-4.10,4.28
11.570,1.26,-0.46,-2.41,2.76
11.580,0.29,-0.18,-0.62,0.71
11.590,-1.34,1.53,0.86,2.21
11.600,-3.38,6.11,1.50,7.14
11.609,-4.84,13.28,0.88,14.16
11.621,-4.12,16.19,0.40,16.71
11.630,-4.81,11.42,3.41,12.85
11.640,-5.26,4.43,5.24,8.65
11.650,-4.34,-0.57,5.93,7.37
11.660,-2.96,-3.01,6.22,7.52
11.670,-1.80,-3.97,5.70,7.18
11.680,-1.05,-3.46,4.70,5.93
11.689,-0.36,-2.13,3.14,3.82
11.700,0.12,-1.11,1.48,1.85
11.710,-0.31,-0.51,0.12,0.61
11.720,-1.78,-0.30,-0.71,1.94
11.730,-3.46,-0.28,-1.11,3.65
11.740,-4.48,-0.29,-1.16,4.64
11.749,-4.57,-1.04,-0.59,4.72
11.759,-3.90,-2.12,-0.13,4.44
11.769,-2.64,-2.65,0.20,3.75
11.779,-1.60,-3.02,0.70,3.49
11.789,-1.08,-3.52,0.90,3.79
11.799,-1.21,-4.21,0.51,4.41
11.809,-1.44,-4.98,-0.10,5.18
11.819,-1.60,-5.68,-0.44,5.92
11.829,-1.67,-5.80,-0.51,6.06
11.839,-1.84,-5.25,-0.50,5.58
11.849,-2.11,-3.97,-0.44,4.52
11.859,-2.17,-2.22,-0.26,3.12
11.869,-2.07,-0.62,0.01,2.16
11.879,-1.86,0.37,0.31,1.92
11.889,-1.59,0.89,0.37,1.86
11.899,-1.25,1.24,0.32,1.79
11.909,-0.89,1.75,0.16,1.97
11.919,-0.54,2.29,-0.34,2.38
11.929,-0.37,2.27,-0.92,2.48
11.939,-0.25,1.61,-1.73,2.37
11.949,-0.11,0.56,-2.59,2.65
11.959,0.00,-0.54,-3.26,3.31
11.969,0.11,-1.19,-4.08,4.26
11.979,0.31,-1.54,-4.86,5.11
11.989,0.75,-1.71,-4.95,5.29
11.999,1.31,-1.82,-4.46,4.99
12.009,1.73,-1.68,-3.87,4.56
12.019,2.06,-0.97,-3.35,4.05
12.029,2.38,0.17,-2.85,3.72
12.039,3.10,1.00,-2.52,4.11
12.049,3.68,1.35,-2.46,4.63
12.059,4.05,1.34,-2.70,5.05
12.070,4.19,0.94,-3.17,5.34
12.079,3.90,0.96,-3.64,5.42
12.089,3.20,1.38,-3.55,4.98
12.099,2.77,1.17,-3.20,4.39
12.109,2.49,0.29,-2.72,3.70
12.119,2.70,-0.26,-2.34,3.58
12.129,2.88,-0.39,-1.62,3.33
12.139,2.39,-0.37,-1.18,2.69
12.149,1.91,-0.39,-0.86,2.13
12.159,1.29,-0.31,-0.07,1.33
12.169,-0.10,0.02,0.98,0.99
12.179,-1.59,0.64,1.87,2.54
12.188,-2.62,1.03,2.56,3.81
12.199,-4.05,1.20,3.64,5.58
12.209,-5.62,1.40,4.20,7.15
12.218,-6.80,2.43,4.26,8.39
12.228,-7.79,4.86,4.60,10.27
12.238,-7.69,7.48,4.35,11.58
12.248,-5.98,9.08,3.78,11.51
12.258,-3.63,9.54,3.77,10.88
12.268,-1.39,8.98,4.09,9.96
12.279,0.49,7.57,4.73,8.94
12.288,2.22,5.53,4.96,7.76
12.299,3.51,3.63,4.58,6.82
12.309,4.16,1.82,3.49,5.73
12.319,4.95,-2.18,1.57,5.63
12.328,4.94,-4.60,0.65,6.78
12.338,4.41,-4.29,-0.96,6.23
12.348,4.00,-6.02,-2.11,7.53
12.358,3.37,-7.01,-2.22,8.09
12.369,3.06,-7.34,-2.09,8.22
12.379,2.54,-7.60,-1.69,8.18
12.388,1.20,-6.97,-1.01,7.14
12.398,0.42,-6.68,-0.23,6.69
12.408,-0.27,-6.79,0.43,6.81
12.418,-0.81,-6.27,0.96,6.40
12.428,-1.15,-5.25,1.31,5.53
12.438,-1.29,-3.94,1.45,4.39
12.448,-1.28,-2.81,1.43,3.40
12.458,-1.25,-1.95,1.28,2.64
12.468,-1.31,-1.17,1.18,2.11
12.478,-1.20,-0.57,1.41,1.94
12.488,-0.93,-0.24,1.87,2.10
12.498,-0.52,-0.31,2.04,2.13
12.508,-0.30,-0.28,1.77,1.81
12.518,-0.30,0.58,1.09,1.27
12.528,-0.09,1.76,0.25,1.78
12.538,0.63,2.67,-0.94,2.90
12.548,1.51,4.43,-2.21,5.18
12.558,2.72,7.05,-3.34,8.26
12.568,4.21,7.10,-4.31,9.31
12.578,4.17,4.93,-4.81,8.05
12.588,2.67,3.09,-5.00,6.46
12.598,1.43,1.70,-4.87,5.35
12.608,1.10,0.42,-4.64,4.79
12.618,1.36,-0.34,-3.88,4.12
12.628,1.34,-0.47,-2.37,2.76
12.638,0.58,0.01,-0.84,1.01
12.648,-0.69,1.86,0.51,2.04
12.658,-2.49,6.15,1.25,6.75
12.668,-4.17,12.53,0.76,13.23
12.679,-3.66,15.40,0.22,15.83
12.688,-4.48,11.56,2.92,12.73
12.698,-5.25,5.56,4.56,8.90
12.708,-4.43,0.56,5.11,6.79
12.718,-2.83,-2.43,5.60,6.73
12.728,-1.38,-3.95,5.32,6.76
12.738,-0.57,-3.91,4.56,6.04
12.748,0.22,-2.83,3.21,4.29
12.758,0.82,-1.92,1.60,2.63
12.768,0.55,-1.53,0.18,1.64
12.778,-0.58,-1.37,-0.62,1.61
12.788,-2.44,-1.22,-0.75,2.83
12.798,-4.42,-0.98,-0.98,4.63
12.808,-5.29,-1.06,-1.09,5.50
12.818,-5.14,-1.95,-0.54,5.52
12.828,-4.48,-2.37,-0.07,5.07
12.838,-3.50,-2.87,0.60,4.57
12.847,-2.59,-3.64,1.20,4.63
12.857,-2.18,-4.29,1.28,4.98
12.867,-1.79,-5.05,0.59,5.39
12.877,-1.48,-5.84,-0.09,6.02
12.887,-1.51,-6.02,-0.40,6.22
12.897,-1.57,-5.45,-0.63,5.71
12.907,-1.75,-4.19,-1.01,4.65
12.918,-2.01,-2.41,-1.19,3.35
12.927,-1.95,-0.80,-1.05,2.35
12.937,-1.64,0.39,-0.53,1.77
12.947,-1.36,1.33,0.11,1.90
12.958,-1.22,2.03,0.61,2.44
12.967,-1.23,2.92,0.74,3.26
12.977,-1.06,3.82,0.24,3.98
12.987,-0.87,3.72,-0.46,3.84
12.997,-0.69,2.77,-1.16,3.08
13.007,-0.45,1.36,-1.74,2.25
13.017,-0.33,0.13,-2.34,2.37
13.027,-0.17,-0.76,-3.13,3.22
13.037,0.08,-1.52,-4.06,4.33
13.047,0.48,-2.37,-4.51,5.12
13.057,1.01,-3.01,-4.30,5.34
13.067,1.35,-3.23,-3.82,5.18
13.077,1.58,-2.76,-3.35,4.62
13.087,1.63,-1.71,-2.89,3.73
13.097,1.70,-0.13,-2.59,3.10
13.107,2.34,1.47,-2.14,3.49
13.117,2.98,2.38,-2.03,4.32
13.127,3.34,2.44,-2.49,4.82
13.137,3.39,2.08,-3.12,5.06
13.147,2.98,2.10,-3.28,4.91
13.157,2.40,2.03,-2.85,4.24
13.167,2.36,1.38,-2.19,3.51
13.177,2.77,0.54,-1.90,3.41
13.187,3.43,0.17,-1.78,3.86
13.197,3.56,0.34,-1.27,3.80
13.207,3.16,0.73,-1.19,3.46
13.217,2.49,0.66,-1.37,2.92
13.227,1.22,0.03,-1.34,1.81
13.237,-0.25,-0.40,-0.55,0.72
13.247,-1.46,-0.59,0.52,1.66
13.257,-2.50,-0.67,1.55,3.01
13.267,-3.62,-1.02,2.66,4.61
13.277,-4.97,-1.05,3.76,6.32
13.287,-6.22,-0.04,4.09,7.44
13.297,-7.57,2.77,4.25,9.11
13.307,-8.74,6.71,3.82,11.67
13.317,-7.76,9.46,3.59,12.75
13.327,-4.60,10.43,3.99,12.07
13.337,-1.21,10.13,4.35,11.09
13.346,1.25,8.58,5.06,10.04
13.356,2.99,6.61,5.50,9.10
13.367,4.41,4.29,5.29,8.12
13.377,5.06,2.02,4.74,7.22
13.386,5.48,-1.64,3.02,6.47
13.397,5.51,-5.79,0.99,8.06
13.406,4.43,-4.98,-0.50,6.69
13.417,3.79,-5.06,-2.43,6.78
13.427,3.40,-6.22,-2.82,7.63
13.437,3.41,-7.12,-2.75,8.36
13.447,2.69,-6.74,-2.22,7.59
13.457,1.75,-6.30,-1.63,6.74
13.467,0.75,-6.24,-0.83,6.34
13.476,-0.10,-6.12,-0.29,6.13
13.486,-0.69,-5.78,0.16,5.82
13.497,-1.05,-5.05,0.57,5.19
13.506,-1.32,-4.06,0.91,4.37
13.516,-1.64,-2.91,1.06,3.50
13.526,-2.08,-1.71,0.96,2.86
13.536,-2.29,-0.73,0.91,2.57
13.546,-2.02,-0.52,1.12,2.37
13.556,-1.49,-1.05,1.66,2.47
13.566,-1.04,-1.75,2.21,3.00
13.576,-0.44,-2.45,2.23,3.34
13.586,-0.00,-2.45,1.82,3.05
13.596,0.12,-1.45,1.23,1.90
13.606,0.32,-0.45,0.30,0.62
13.616,0.80,1.32,-0.59,1.65
13.626,1.79,3.74,-1.48,4.41
13.636,2.90,6.76,-2.44,7.75
13.646,4.10,8.17,-3.46,9.78
13.656,4.10,7.23,-4.11,9.27
13.666,2.72,5.27,-4.23,7.29
13.676,1.34,3.17,-4.13,5.38
13.686,1.05,1.25,-4.08,4.39
13.696,1.44,0.34,-3.72,4.00
13.706,1.71,0.23,-2.79,3.28
13.716,1.25,0.52,-1.46,1.99
13.726,-0.12,1.66,-0.09,1.66
13.736,-1.91,4.92,0.64,5.32
13.746,-3.48,10.40,0.85,11.00
13.756,-3.42,15.08,-0.23,15.47
13.766,-3.76,12.71,0.83,13.28
13.776,-4.66,6.79,3.33,8.88
13.786,-4.22,1.06,4.46,6.23
13.796,-2.93,-2.67,5.10,6.47
13.806,-1.51,-4.53,5.32,7.15
13.816,-0.86,-4.77,4.93,6.91
13.826,-0.36,-3.70,3.80,5.32
13.836,0.13,-2.50,2.31,3.41
13.846,0.42,-1.79,0.88,2.04
13.856,0.01,-1.27,-0.23,1.29
13.866,-1.46,-0.74,-0.40,1.69
13.876,-3.62,-0.30,-0.55,3.68
13.885,-5.53,0.15,-0.72,5.58
13.896,-5.95,0.01,-0.09,5.95
13.906,-5.21,-0.64,0.60,5.29
13.916,-3.76,-1.16,1.14,4.09
13.926,-2.63,-1.84,1.72,3.64
13.936,-1.85,-2.75,1.59,3.68
13.946,-1.40,-3.84,0.69,4.15
13.956,-1.10,-4.98,-0.26,5.11
13.965,-1.01,-5.85,-0.76,5.98
13.976,-1.13,-5.94,-1.04,6.13
13.985,-1.32,-5.29,-1.33,5.61
13.995,-1.51,-3.93,-1.41,4.44
14.006,-1.65,-2.19,-1.06,2.94
14.016,-1.66,-0.52,-0.48,1.80
14.025,-1.59,0.88,-0.01,1.81
14.035,-1.33,1.73,0.21,2.19
14.045,-1.13,2.07,0.32,2.39
14.055,-1.11,2.36,-0.07,2.61
14.066,-1.04,2.61,-0.74,2.91
14.075,-1.06,2.14,-1.08,2.62
14.085,-1.05,0.92,-1.32,1.92
14.095,-0.92,-0.58,-1.59,1.92
14.105,-0.61,-1.59,-2.10,2.70
14.115,-0.10,-1.99,-2.86,3.48
14.125,0.41,-2.04,-3.45,4.03
14.135,1.02,-1.88,-3.65,4.23
14.145,1.78,-1.56,-3.43,4.17
14.155,2.26,-0.95,-3.15,4.00
14.165,2.61,-0.30,-3.03,4.01
14.175,2.63,0.31,-2.90,3.93
14.185,2.80,1.15,-2.68,4.04
14.195,3.00,1.77,-2.19,4.11
14.205,2.97,2.07,-2.14,4.20
14.215,3.01,2.05,-2.69,4.53
14.225,3.04,1.93,-3.40,4.95
14.235,2.66,1.99,-3.67,4.95
14.245,2.10,1.91,-3.42,4.45
14.255,2.15,1.11,-3.11,3.94
14.265,2.37,0.23,-2.87,3.73
14.275,2.82,0.11,-2.47,3.75
14.285,3.07,0.44,-1.57,3.47
14.295,2.67,0.48,-1.08,2.92
14.305,2.26,0.08,-1.21,2.56
14.315,1.64,-0.53,-1.05,2.01
14.325,0.37,-1.04,-0.34,1.15
14.335,-0.90,-1.35,0.83,1.83
14.345,-1.83,-1.31,1.89,2.94
14.355,-2.76,-1.34,2.82,4.16
14.365,-4.05,-1.25,3.73,5.65
14.375,-5.26,-0.26,3.80,6.50
14.385,-6.39,1.58,3.69,7.54
14.395,-7.41,4.73,3.66,9.52
14.405,-7.19,8.09,3.18,11.28
14.415,-5.08,9.93,3.30,11.63
14.426,-2.27,10.64,3.49,11.42
14.434,0.27,9.91,3.93,10.67
14.445,2.14,8.02,4.84,9.61
14.455,3.40,5.56,5.22,8.35
14.465,4.23,2.85,4.95,7.11
14.475,4.37,0.08,4.15,6.03
14.485,4.48,-4.32,2.06,6.56
14.495,3.86,-6.69,0.65,7.75
14.505,3.27,-5.12,-1.23,6.19
14.515,3.21,-5.76,-2.39,7.02
14.525,3.15,-6.33,-2.27,7.43
14.535,2.92,-6.54,-1.96,7.43
14.545,1.98,-6.16,-1.44,6.63
14.555,0.99,-6.14,-1.02,6.30
14.564,0.02,-6.08,-0.45,6.09
14.575,-0.68,-5.78,0.02,5.82
14.585,-1.05,-5.16,0.37,5.28
14.595,-1.17,-4.34,0.74,4.55
14.604,-1.29,-3.44,0.94,3.79
14.614,-1.52,-2.54,1.01,3.13
14.625,-1.66,-1.69,0.99,2.57
14.634,-1.61,-1.00,0.89,2.09
14.645,-1.32,-0.59,1.07,1.80
14.654,-0.85,-0.53,1.36,1.68
14.664,-0.12,-0.80,1.63,1.82
14.674,0.67,-1.28,1.34,1.97
14.684,1.14,-1.31,1.01,2.01
14.694,1.21,0.23,0.70,1.42
14.704,1.51,1.92,-0.27,2.46
14.714,2.34,3.65,-1.29,4.53
14.724,3.50,5.83,-2.78,7.35
14.734,4.31,7.80,-4.23,9.87
14.744,4.40,6.59,-4.82,9.28
14.754,2.94,4.05,-5.09,7.14
14.765,1.29,2.06,-5.06,5.62
14.774,0.64,0.07,-5.06,5.10
14.784,0.88,-1.26,-4.46,4.72
14.794,1.19,-1.25,-2.84,3.33
14.804,0.75,-0.83,-1.04,1.53
14.814,-0.51,0.78,0.46,1.04
14.824,-2.36,5.64,1.61,6.33
14.834,-4.03,13.11,1.80,13.83
14.845,-3.25,17.82,0.10,18.11
14.854,-4.06,14.52,2.12,15.22
14.864,-5.67,7.60,4.54,10.51
14.874,-5.29,1.45,5.13,7.51
14.884,-3.44,-2.21,5.72,7.03
14.894,-1.57,-4.05,5.93,7.36
14.904,-0.41,-3.84,5.31,6.56
14.914,0.55,-2.39,3.83,4.55
14.924,1.35,-1.61,2.12,2.99
14.934,1.14,-1.05,0.60,1.67
14.944,-0.48,-0.68,-0.52,0.98
14.954,-3.24,-0.58,-1.36,3.56
14.964,-5.71,-0.61,-1.83,6.03
14.974,-6.39,-1.05,-1.08,6.57
14.984,-5.72,-2.07,-0.20,6.08
14.994,-4.05,-2.66,0.31,4.85
15.004,-2.37,-3.34,0.80,4.17
15.014,-1.43,-3.77,1.29,4.23
15.024,-1.17,-3.88,1.20,4.22
15.034,-1.08,-4.27,0.38,4.43
15.044,-1.15,-4.87,-0.34,5.01
15.054,-1.40,-5.34,-0.73,5.57
15.064,-1.68,-5.08,-1.03,5.45
15.074,-2.00,-3.99,-1.19,4.62
15.084,-2.13,-2.46,-0.96,3.39
15.094,-2.12,-0.86,-0.48,2.34
15.104,-2.19,0.59,0.05,2.27
15.114,-2.13,1.56,0.19,2.64
15.123,-1.86,1.81,0.18,2.60
15.134,-1.83,1.80,-0.12,2.57
15.143,-1.73,1.94,-0.70,2.69
15.153,-1.65,1.42,-1.09,2.43
15.164,-1.67,0.19,-1.27,2.10
15.174,-1.56,-1.18,-1.50,2.46
15.183,-1.28,-1.99,-1.86,3.01
15.194,-0.86,-2.07,-2.54,3.39
15.203,-0.55,-1.99,-3.32,3.91
15.214,0.04,-1.68,-3.83,4.18
15.223,0.80,-1.28,-4.10,4.37
15.233,1.50,-0.67,-4.17,4.48
15.243,2.27,0.05,-4.06,4.65
15.253,3.12,0.88,-3.74,4.95
15.264,4.09,1.53,-3.05,5.33
15.273,4.64,1.93,-2.38,5.56
15.283,4.49,2.10,-2.23,5.43
15.293,4.17,2.21,-2.60,5.39
15.304,3.73,2.59,-2.88,5.38
15.313,2.90,2.73,-2.75,4.84
15.323,2.47,1.99,-2.72,4.18
15.333,2.44,0.85,-2.63,3.69
15.343,2.43,0.45,-2.62,3.60
15.353,2.59,0.76,-2.35,3.58
15.363,2.33,0.80,-2.03,3.19
15.373,1.86,0.30,-1.91,2.68
15.383,1.36,-0.53,-1.41,2.03
15.393,0.39,-1.16,-0.38,1.28
15.403,-0.95,-1.33,1.03,1.93
15.413,-1.91,-1.18,2.22,3.15
15.423,-2.45,-1.12,2.97,4.01
15.433,-3.45,-1.21,3.97,5.40
15.443,-4.74,-0.81,4.49,6.58
15.453,-5.83,0.40,4.29,7.25
15.463,-6.92,3.27,4.16,8.71
15.473,-6.98,7.00,3.36,10.44
15.483,-5.33,9.26,2.93,11.08
15.493,-2.95,10.17,3.11,11.04
15.503,-0.43,9.85,3.48,10.46
15.513,1.45,8.26,4.47,9.50
15.523,2.95,5.81,4.87,8.14
15.533,4.01,3.10,4.52,6.80
15.543,4.34,0.47,3.83,5.81
15.553,4.63,-3.65,2.27,6.32
15.563,4.14,-6.69,0.92,7.92
15.573,3.24,-5.12,-0.58,6.08
15.583,2.93,-5.80,-2.23,6.87
15.593,2.81,-6.57,-2.32,7.52
15.603,2.66,-6.78,-2.31,7.64
15.613,2.02,-6.22,-1.96,6.83
15.623,1.35,-5.78,-1.45,6.11
15.633,0.65,-5.53,-0.82,5.62
15.643,0.05,-5.24,-0.20,5.25
15.653,-0.34,-4.72,0.35,4.74
15.662,-0.55,-4.03,0.74,4.14
15.673,-0.76,-3.21,0.95,3.43
15.682,-0.92,-2.42,1.11,2.82
15.693,-0.93,-1.81,1.07,2.30
15.702,-0.85,-1.23,0.90,1.74
15.713,-0.62,-0.78,0.87,1.32
15.722,-0.13,-0.59,1.11,1.26
15.733,0.60,-0.90,1.37,1.74
15.742,1.00,-1.30,1.23,2.05
15.753,0.90,-0.77,0.71,1.38
15.763,0.74,0.67,0.04,1.00
15.773,0.95,2.04,-0.82,2.40
15.782,1.41,4.03,-1.60,4.56
15.792,2.27,6.13,-2.62,7.04
15.803,3.03,6.08,-3.53,7.65
15.812,2.64,4.08,-3.86,6.21
15.822,1.35,2.70,-4.13,5.12
15.832,0.68,1.99,-4.25,4.74
15.842,0.84,1.45,-3.78,4.14
15.852,1.19,1.22,-2.73,3.22
15.862,1.04,1.14,-1.16,1.93
15.872,0.19,1.42,0.03,1.43
15.882,-1.31,3.54,0.59,3.82
15.892,-2.90,8.52,0.89,9.04
15.902,-3.76,13.65,0.85,14.18
15.913,-3.57,15.29,0.22,15.71
15.922,-4.42,9.83,1.22,10.85
15.932,-4.50,2.86,2.91,6.07
15.942,-3.48,-1.89,4.33,5.87
15.952,-2.30,-4.16,5.02,6.91
15.962,-1.14,-4.78,4.83,6.89
15.972,-0.34,-3.98,4.08,5.71
15.982,0.68,-2.96,2.61,4.00
15.992,1.52,-2.29,0.94,2.91
16.002,1.82,-1.76,-0.24,2.54
16.012,1.37,-1.40,-0.49,2.02
16.022,-0.36,-0.93,-0.03,0.99
16.032,-2.69,-0.31,0.13,2.71
16.042,-4.22,0.17,-0.39,4.24
16.052,-4.77,0.09,-0.28,4.78
16.062,-4.67,-0.45,0.09,4.69
16.072,-4.12,-1.01,0.68,4.30
16.082,-3.36,-2.27,1.23,4.24
16.092,-2.82,-3.87,1.08,4.91
16.102,-2.48,-5.33,0.48,5.90
16.112,-2.17,-6.45,-0.03,6.80
16.122,-1.95,-6.82,-0.25,7.10
16.132,-1.92,-6.15,-0.49,6.46
16.142,-2.04,-4.59,-0.81,5.09
16.152,-2.25,-2.53,-0.93,3.51
16.162,-2.38,-0.41,-0.69,2.52
16.172,-2.43,1.04,-0.24,2.65
16.182,-2.21,1.64,0.27,2.77
16.192,-1.78,1.50,0.73,2.44
16.202,-1.41,1.54,0.77,2.22
16.212,-1.14,2.09,0.43,2.42
16.222,-1.08,2.40,-0.18,2.64
16.231,-1.04,1.87,-0.86,2.31
16.242,-0.97,0.66,-1.51,1.92
16.252,-0.80,-0.68,-2.20,2.44
16.262,-0.34,-1.87,-3.09,3.63
16.272,0.08,-2.82,-3.93,4.84
16.282,0.65,-3.29,-4.34,5.49
16.292,1.32,-3.15,-4.26,5.46
16.302,1.74,-2.51,-4.04,5.06
16.312,1.83,-1.65,-3.70,4.44
16.322,2.42,-0.36,-3.42,4.20
16.332,3.43,0.87,-2.72,4.46
16.341,4.05,1.75,-2.34,5.00
16.351,4.28,2.33,-2.69,5.57
16.362,4.29,2.72,-3.49,6.16
16.371,3.84,3.24,-4.11,6.49
16.381,2.97,3.42,-4.05,6.08
16.391,2.27,2.61,-3.87,5.19
16.401,2.07,1.25,-3.67,4.40
16.411,1.90,0.41,-3.27,3.80
16.421,1.83,0.04,-2.59,3.17
16.431,1.76,-0.60,-1.97,2.71
16.441,1.27,-1.70,-1.32,2.50
16.451,0.72,-2.69,-0.16,2.80
16.462,0.34,-2.93,1.22,3.19
16.471,-0.40,-2.47,2.44,3.49
16.481,-1.05,-1.54,3.15,3.65
16.491,-1.81,-0.89,3.93,4.41
16.501,-3.28,-0.04,4.88,5.88
16.511,-4.74,1.18,4.93,6.94
16.521,-6.07,3.71,4.77,8.56
16.531,-7.03,7.86,4.40,11.43
16.541,-6.56,11.02,3.74,13.36
16.551,-4.68,12.16,3.80,13.57
16.562,-2.11,11.87,3.69,12.61
16.571,0.15,9.95,3.97,10.71
16.581,1.87,7.18,4.39,8.62
16.591,3.29,4.56,4.26,7.05
16.601,4.31,2.00,3.71,6.02
16.611,4.51,-0.55,2.86,5.37
16.621,4.74,-4.35,0.97,6.50
16.631,4.27,-6.65,0.46,7.92
16.641,3.37,-5.44,-0.40,6.41
16.651,3.44,-6.51,-2.09,7.66
16.661,3.55,-7.26,-1.79,8.28
16.671,3.19,-7.33,-1.69,8.17
16.681,2.24,-6.60,-1.23,7.07
16.691,1.20,-5.81,-0.77,5.98
16.701,0.20,-5.49,-0.32,5.50
16.711,-0.76,-5.29,0.09,5.35
16.721,-1.51,-4.90,0.39,5.15
16.731,-1.81,-4.23,0.49,4.62
16.741,-1.73,-3.46,0.65,3.92
16.751,-1.43,-2.88,0.72,3.30
16.761,-1.17,-2.49,0.79,2.86
16.771,-1.00,-2.23,0.93,2.62
16.781,-0.75,-1.92,1.22,2.40
16.791,-0.30,-1.52,1.68,2.28
16.801,0.29,-1.44,1.96,2.45
16.811,0.42,-1.26,1.89,2.31
16.821,-0.06,0.49,1.60,1.67
16.831,-0.28,2.28,0.86,2.46
16.841,-0.07,3.51,-0.19,3.52
16.851,0.27,5.76,-1.47,5.95
16.861,1.41,8.76,-3.02,9.38
16.870,3.03,8.15,-4.32,9.70
16.881,2.89,5.26,-4.95,7.78
16.891,1.82,2.98,-5.19,6.26
16.901,1.43,1.08,-5.03,5.34
16.911,1.66,-0.36,-4.45,4.77
16.921,2.04,-0.69,-3.24,3.89
16.931,2.04,-0.67,-1.89,2.86
16.941,1.43,-0.18,-0.66,1.58
16.950,0.49,1.25,0.39,1.39
16.961,-1.09,5.04,1.02,5.25
16.970,-2.62,11.05,0.58,11.37
16.981,-3.10,13.94,0.23,14.29
16.991,-4.97,12.00,2.69,13.26
17.000,-5.69,7.15,4.28,10.09
17.010,-4.96,2.19,5.10,7.45
17.020,-3.45,-0.82,5.85,6.84
17.030,-2.26,-2.25,5.78,6.60
17.040,-1.11,-2.77,4.68,5.55
17.050,0.00,-2.72,3.24,4.23
17.060,0.61,-2.22,1.91,2.99
17.070,0.33,-2.20,0.80,2.36
17.080,-1.09,-2.25,0.30,2.52
17.090,-3.25,-2.04,-0.41,3.86
17.100,-4.94,-1.64,-1.30,5.37
17.110,-5.12,-1.78,-1.25,5.56
17.120,-4.52,-2.37,-0.72,5.15
17.130,-3.63,-2.79,-0.18,4.58
17.140,-2.54,-3.20,0.41,4.11
17.150,-1.79,-3.31,0.81,3.85
17.160,-1.07,-3.58,0.60,3.78
17.170,-0.80,-4.13,-0.06,4.21
17.180,-0.85,-4.72,-0.64,4.84
17.190,-1.19,-4.98,-0.91,5.20
17.200,-1.60,-4.71,-1.03,5.08
17.210,-1.89,-3.62,-1.09,4.23
17.220,-1.91,-1.88,-0.84,2.81
17.230,-1.72,0.11,-0.04,1.72
17.240,-1.63,1.92,0.85,2.66
17.250,-1.52,3.24,1.31,3.81
17.260,-1.38,3.61,1.22,4.05
17.270,-1.22,3.48,0.32,3.70
17.280,-0.97,2.83,-0.78,3.09
17.290,-0.73,1.47,-1.55,2.26
17.300,-0.73,-0.22,-1.90,2.05
17.310,-0.78,-1.79,-2.19,2.94
17.320,-0.67,-2.62,-2.68,3.81
17.330,-0.36,-2.73,-3.18,4.21
17.340,0.01,-2.47,-3.63,4.39
17.350,0.47,-2.05,-3.57,4.15
17.360,1.03,-1.62,-3.15,3.69
17.370,1.61,-0.85,-2.75,3.30
17.380,2.26,0.10,-2.55,3.41
17.390,2.71,0.93,-2.24,3.64
17.400,3.21,1.69,-2.22,4.26
17.410,3.68,1.96,-2.11,4.67
17.420,3.37,1.82,-2.06,4.35
17.429,2.92,1.60,-2.50,4.17
17.440,2.49,1.59,-3.09,4.28
17.449,2.01,1.87,-3.19,4.21
17.460,1.64,1.64,-2.97,3.76
17.469,1.80,0.69,-2.87,3.46
17.479,2.14,-0.02,-2.69,3.44
17.490,2.74,0.01,-2.58,3.77
17.500,3.27,0.32,-2.23,3.97
17.510,3.09,0.26,-1.96,3.67
17.520,2.45,-0.16,-1.84,3.06
17.529,1.50,-0.90,-1.69,2.44
17.539,0.23,-1.47,-0.98,1.78
17.549,-0.88,-1.70,0.25,1.93
17.560,-1.82,-1.69,1.38,2.84
17.569,-2.65,-1.68,2.23,3.85
17.579,-3.53,-1.63,3.15,5.00
17.589,-4.42,-0.94,3.76,5.88
17.599,-5.16,0.65,3.96,6.53
17.609,-6.13,3.97,4.26,8.46
17.619,-6.57,8.30,3.48,11.14
17.629,-5.18,11.03,3.21,12.60
17.640,-2.56,12.07,3.73,12.89
17.650,0.21,11.60,4.01,12.27
17.659,2.34,9.50,4.93,10.96
17.669,3.78,6.70,5.50,9.46
17.679,4.72,3.62,5.17,7.88
17.689,5.10,0.36,4.36,6.72
17.699,4.85,-4.01,2.20,6.67
17.709,3.88,-7.17,0.58,8.17
17.719,2.89,-5.50,-1.34,6.36
17.729,2.69,-5.49,-2.71,6.69
17.739,2.36,-5.63,-2.52,6.60
17.749,2.36,-6.04,-2.33,6.89
17.759,1.67,-5.67,-1.64,6.13
17.769,0.51,-5.36,-1.24,5.53
17.779,-0.37,-5.67,-0.68,5.72
17.789,-0.92,-5.75,0.01,5.82
17.799,-1.24,-5.25,0.46,5.42
17.809,-1.30,-4.43,0.80,4.68
17.819,-1.37,-3.61,1.08,4.01
17.829,-1.56,-2.89,1.13,3.47
17.839,-1.80,-2.26,1.18,3.12
17.849,-1.92,-1.71,1.22,2.84
17.859,-1.71,-1.40,1.36,2.59
17.869,-1.30,-1.30,1.70,2.50
17.879,-0.60,-1.42,1.82,2.39
17.889,0.06,-1.57,1.71,2.32
17.899,0.35,-1.17,1.24,1.75
17.909,0.25,0.22,0.92,0.98
17.919,0.31,1.84,0.23,1.88
17.929,0.91,3.11,-0.83,3.35
17.939,1.97,5.58,-1.64,6.14
17.949,3.01,7.45,-2.50,8.41
17.959,3.51,7.13,-3.23,8.58
17.968,2.96,5.11,-3.60,6.91
17.979,1.65,3.11,-3.77,5.16
17.989,1.06,1.24,-3.90,4.23
17.999,1.56,-0.44,-4.13,4.43
18.009,2.37,-1.00,-3.62,4.44
18.018,2.44,-0.81,-2.52,3.60
18.029,1.72,-0.39,-1.38,2.23
18.039,0.75,0.56,0.01,0.94
18.048,-0.64,3.11,1.26,3.42
18.059,-2.53,8.42,1.56,8.93
18.068,-3.28,14.32,-0.33,14.70
18.079,-4.39,14.86,-0.69,15.50
18.089,-5.53,10.80,2.15,12.33
18.099,-5.05,4.13,3.91,7.60
18.109,-3.94,-1.07,4.81,6.31
18.118,-2.40,-3.90,5.55,7.19
18.128,-1.10,-4.68,5.43,7.26
18.138,-0.49,-4.14,4.31,6.00
18.148,-0.09,-3.24,2.69,4.21
18.159,0.35,-2.52,1.15,2.79
18.168,0.53,-2.24,-0.12,2.30
18.178,-0.31,-1.85,-0.48,1.94
18.188,-2.24,-1.17,-0.38,2.55
18.198,-4.52,-0.48,-0.61,4.58
18.208,-5.95,0.04,-0.38,5.96
18.218,-5.95,0.05,0.28,5.96
18.228,-4.89,-0.24,0.94,4.98
18.238,-3.67,-0.84,1.50,4.05
18.248,-2.60,-1.60,1.84,3.56
18.258,-1.88,-2.83,1.30,3.64
18.268,-1.53,-4.12,0.26,4.40
18.278,-1.21,-5.21,-0.62,5.38
18.288,-1.19,-5.62,-1.02,5.84
18.298,-1.40,-5.15,-1.48,5.54
18.308,-1.55,-4.16,-1.97,4.86
18.318,-1.88,-2.93,-1.98,4.01
18.328,-2.05,-1.60,-1.42,2.96
18.338,-1.97,-0.31,-0.59,2.08
18.348,-1.84,0.84,0.27,2.05
18.358,-1.49,1.53,0.49,2.19
18.368,-1.17,1.73,0.02,2.09
18.378,-1.09,1.73,-0.69,2.16
18.388,-0.96,1.48,-1.26,2.16
18.398,-0.79,0.63,-1.48,1.79
18.408,-0.71,-0.34,-1.43,1.64
18.418,-0.66,-0.96,-1.59,1.97
18.428,-0.39,-0.97,-2.28,2.51
18.438,-0.11,-0.68,-3.21,3.28
18.448,0.24,-0.44,-3.96,3.99
18.458,0.72,-0.55,-4.05,4.15
18.468,1.23,-0.72,-3.79,4.05
18.478,1.90,-0.78,-3.57,4.12
18.488,2.59,-0.47,-3.14,4.10
18.498,3.34,0.27,-2.73,4.33
18.508,3.80,1.16,-2.35,4.61
18.518,3.44,1.95,-2.03,4.45
18.528,3.02,2.53,-2.20,4.51
18.538,2.82,2.53,-2.85,4.74
18.548,2.50,2.18,-3.47,4.80
18.558,2.04,1.66,-3.42,4.31
18.568,1.90,0.92,-3.01,3.68
18.578,2.31,0.14,-2.57,3.46
18.588,2.96,-0.27,-2.41,3.82
18.598,3.43,-0.10,-2.12,4.03
18.608,3.29,0.29,-1.76,3.74
18.617,2.92,0.39,-1.74,3.42
18.627,2.07,-0.03,-1.73,2.70
18.637,0.67,-0.54,-1.07,1.38
18.647,-0.65,-0.79,0.25,1.06
18.658,-1.81,-0.84,1.43,2.45
18.668,-2.86,-0.96,2.22,3.75
18.678,-3.77,-1.22,3.11,5.04
18.687,-4.64,-1.05,3.80,6.09
18.697,-5.42,0.35,3.87,6.67
18.708,-6.41,3.23,4.17,8.31
18.717,-6.95,7.06,3.76,10.60
18.727,-5.90,9.67,3.57,11.88
18.738,-3.40,10.47,3.99,11.71
18.748,-0.47,10.06,4.06,10.86
18.757,1.74,8.29,4.60,9.64
18.767,3.28,5.87,4.86,8.29
18.777,4.44,3.31,4.52,7.15
18.787,4.95,0.53,3.66,6.18
18.797,4.86,-3.59,1.68,6.27
18.807,4.13,-5.71,0.05,7.05
18.817,3.42,-4.07,-1.62,5.56
18.827,3.44,-4.82,-2.74,6.52
18.837,3.45,-5.81,-2.76,7.30
18.847,2.98,-6.20,-2.51,7.32
18.857,2.24,-5.59,-1.83,6.30
18.867,1.21,-5.15,-1.42,5.47
18.877,0.25,-5.38,-0.86,5.46
18.887,-0.36,-5.31,-0.26,5.33
18.897,-0.89,-4.89,0.14,4.97
18.907,-1.32,-4.10,0.54,4.34
18.917,-1.60,-3.25,0.89,3.73
18.927,-1.94,-2.54,1.10,3.38
18.937,-2.29,-2.07,1.28,3.34
18.947,-2.49,-1.78,1.46,3.39
18.957,-2.33,-1.78,1.69,3.38
18.967,-1.82,-2.05,1.95,3.36
18.977,-0.99,-2.43,1.97,3.29
18.987,-0.16,-2.60,1.57,3.04
18.997,0.50,-2.40,1.04,2.66
19.007,0.90,-1.85,0.41,2.10
19.017,1.00,-0.61,-0.05,1.18
19.027,1.15,1.40,-0.57,1.89
19.037,1.65,3.65,-1.29,4.20
19.047,2.24,6.43,-2.15,7.14
19.057,2.94,8.58,-2.86,9.51
19.067,3.13,7.63,-3.49,8.96
19.077,1.98,4.93,-4.23,6.79
19.087,0.73,2.56,-4.49,5.22
19.097,0.66,0.90,-4.15,4.30
19.107,1.31,0.24,-3.53,3.77
19.117,1.72,0.16,-2.60,3.12
19.127,1.38,0.18,-1.41,1.98
19.137,0.33,0.84,-0.05,0.90
19.147,-1.27,2.79,1.14,3.27
19.157,-3.09,7.38,1.27,8.10
19.167,-4.46,13.49,0.18,14.21
19.177,-4.50,15.76,-0.89,16.42
19.187,-5.00,11.19,1.26,12.32
19.196,-4.63,4.24,3.41,7.15
19.206,-3.78,-1.03,4.40,5.90
19.216,-2.76,-3.88,5.24,7.08
19.227,-1.63,-5.06,5.29,7.50
19.236,-0.96,-4.62,4.54,6.55
19.247,-0.29,-3.76,3.23,4.96
19.256,0.31,-3.17,1.83,3.68
19.266,0.68,-2.76,0.59,2.90
19.276,0.40,-2.43,-0.19,2.46
19.286,-0.88,-1.64,-0.05,1.86
19.296,-2.90,-0.62,0.23,2.97
19.306,-4.56,0.02,-0.04,4.56
19.316,-5.36,-0.04,-0.18,5.36
19.326,-5.18,-0.19,0.08,5.18
19.336,-4.40,-0.48,0.49,4.45
19.346,-3.35,-1.22,0.93,3.69
19.356,-2.36,-2.34,0.99,3.47
19.366,-1.62,-3.81,0.43,4.16
19.376,-1.10,-5.24,-0.45,5.38
19.386,-0.84,-6.06,-1.10,6.21
19.396,-0.90,-6.03,-1.57,6.30
19.406,-1.02,-5.25,-1.93,5.69
19.416,-1.26,-3.91,-1.90,4.53
19.426,-1.47,-2.27,-1.39,3.04
19.436,-1.56,-0.81,-0.58,1.85
19.446,-1.58,0.31,0.22,1.63
19.456,-1.40,1.23,0.94,2.09
19.466,-1.22,1.91,1.41,2.67
19.476,-1.24,2.44,1.21,2.99
19.486,-1.21,2.75,0.44,3.04
19.496,-1.02,2.45,-0.31,2.67
19.506,-0.71,1.66,-1.05,2.09
19.516,-0.54,0.72,-1.76,1.97
19.526,-0.58,0.03,-2.55,2.62
19.536,-0.38,-0.25,-3.36,3.39
19.546,0.03,-0.47,-3.72,3.74
19.556,0.45,-0.67,-3.59,3.68
19.566,0.82,-0.72,-3.03,3.22
19.576,1.17,-0.74,-2.62,2.96
19.586,1.34,-0.54,-2.50,2.89
19.596,1.33,-0.01,-2.54,2.87
19.606,1.58,0.69,-2.75,3.24
19.616,2.21,1.09,-2.57,3.56
19.626,2.93,1.20,-2.17,3.84
19.636,3.61,1.01,-2.25,4.38
19.646,3.99,0.78,-2.99,5.05
19.656,3.82,0.98,-3.86,5.52
19.666,3.24,1.35,-4.13,5.42
19.676,2.84,1.24,-3.97,5.03
19.686,2.82,0.64,-3.65,4.66
19.696,3.04,0.51,-3.18,4.43
19.706,3.50,0.99,-2.63,4.49
19.716,3.42,1.23,-1.96,4.13
19.726,2.83,0.77,-1.70,3.39
19.735,2.05,0.08,-1.61,2.60
19.746,0.91,-0.76,-1.07,1.60
19.756,-0.09,-1.70,-0.11,1.70
19.766,-0.97,-2.27,0.91,2.63
19.775,-1.88,-2.34,1.77,3.48
19.785,-2.84,-2.38,2.55,4.50
19.796,-3.77,-2.35,3.66,5.75
19.806,-4.48,-1.46,4.71,6.66
19.816,-5.19,0.54,5.08,7.28
19.825,-6.16,3.98,4.86,8.80
19.835,-6.66,8.00,3.72,11.06
19.845,-5.38,10.58,3.36,12.34
19.857,-2.60,11.47,3.66,12.31
19.866,0.29,10.62,3.71,11.26
19.875,2.29,8.40,4.24,9.68
19.886,3.70,5.68,4.52,8.15
19.895,5.00,2.89,4.13,7.10
19.905,5.37,0.27,3.29,6.30
19.915,5.13,-3.65,1.24,6.42
19.925,4.52,-7.02,-0.25,8.35
19.935,3.61,-5.52,-1.17,6.70
19.945,3.53,-5.16,-2.22,6.64
19.956,3.54,-5.97,-2.31,7.31
19.965,3.28,-6.16,-1.92,7.23
19.975,2.46,-5.24,-1.18,5.91
19.985,1.53,-4.87,-0.87,5.18
19.995,0.62,-5.03,-0.52,5.09
20.005,-0.13,-4.89,-0.06,4.90
20.015,-0.66,-4.50,0.23,4.56
20.025,-1.05,-3.78,0.62,3.97
20.035,-1.35,-2.88,1.02,3.34
20.045,-1.50,-2.17,1.15,2.88
20.055,-1.54,-1.71,1.09,2.55
20.065,-1.53,-1.36,1.02,2.28
20.075,-1.26,-1.31,1.03,2.09
20.085,-0.85,-1.48,1.16,2.06
20.095,-0.41,-1.81,1.25,2.24
20.105,-0.00,-2.03,1.07,2.30
20.115,0.17,-1.77,0.75,1.93
20.125,0.24,-1.00,0.41,1.10
20.135,0.37,0.49,-0.01,0.61
20.145,0.90,2.50,-0.67,2.74
20.155,1.59,5.31,-1.61,5.77
20.165,2.44,8.08,-2.89,8.92
20.175,3.34,7.51,-3.95,9.12
20.185,2.55,4.57,-4.61,6.97
20.195,1.00,2.50,-4.83,5.52
20.205,0.39,0.84,-4.53,4.63
20.215,0.89,-0.46,-3.96,4.08
20.225,1.66,-0.80,-2.82,3.37
20.235,1.87,-0.75,-1.79,2.70
20.245,1.47,-0.28,-0.86,1.73
20.255,0.58,1.25,0.21,1.39
20.265,-0.61,5.12,1.26,5.31
20.275,-2.08,10.64,1.69,10.98
20.285,-2.42,15.12,0.23,15.32
20.296,-4.02,13.79,1.04,14.41
20.305,-5.52,8.92,3.05,10.93
20.315,-5.15,3.22,4.44,7.52
20.325,-3.47,-0.82,5.73,6.75
20.335,-1.82,-2.98,5.99,6.93
20.345,-0.89,-3.42,5.07,6.18
20.355,-0.05,-3.23,3.57,4.81
20.365,0.66,-2.70,2.18,3.54
20.375,0.78,-2.22,0.96,2.54
20.385,-0.46,-2.03,0.13,2.08
20.394,-2.69,-1.73,-0.30,3.21
20.405,-4.66,-1.44,-1.09,5.00
20.415,-5.44,-1.30,-1.40,5.76
20.425,-4.93,-1.88,-0.81,5.33
20.434,-3.94,-2.15,-0.17,4.49
20.444,-3.07,-2.49,0.61,4.00
20.454,-2.45,-2.79,1.19,3.89
20.464,-2.04,-3.11,1.20,3.91
20.474,-1.62,-3.79,0.43,4.14
20.484,-1.50,-4.62,-0.24,4.86
20.494,-1.59,-5.32,-0.65,5.60
20.505,-1.91,-5.32,-0.89,5.72
20.514,-2.24,-4.28,-1.09,4.96
20.524,-2.40,-2.69,-1.19,3.79
20.534,-2.43,-0.97,-0.94,2.78
20.544,-2.21,0.51,-0.34,2.30
20.555,-1.85,1.42,0.33,2.36
20.564,-1.54,1.81,0.78,2.50
20.574,-1.40,1.90,0.60,2.43
20.584,-1.12,2.07,-0.25,2.37
20.594,-0.76,1.72,-0.94,2.10
20.604,-0.36,0.72,-1.44,1.65
20.614,-0.01,-0.38,-1.75,1.79
20.624,0.18,-0.99,-2.00,2.24
20.634,0.44,-1.09,-2.59,2.85
20.644,0.72,-0.93,-3.41,3.61
20.654,1.07,-0.78,-4.06,4.27
20.664,1.70,-0.74,-4.22,4.61
20.674,2.32,-0.80,-4.12,4.80
20.684,2.93,-0.73,-3.99,5.00
20.694,3.28,-0.34,-3.56,4.86
20.704,3.74,0.35,-3.21,4.94
20.714,4.04,1.13,-2.58,4.93
20.724,3.85,1.70,-2.16,4.73
20.734,3.52,1.92,-2.40,4.68
20.744,3.28,1.87,-3.05,4.85
20.754,2.69,1.92,-3.45,4.78
20.764,2.08,1.67,-3.38,4.30
20.774,2.02,0.75,-3.26,3.91
20.784,2.22,-0.21,-2.98,3.72
20.794,2.68,-0.64,-2.70,3.86
20.804,2.86,-0.66,-2.10,3.61
20.814,2.52,-0.80,-1.54,3.06
20.824,2.12,-1.13,-1.28,2.72
20.834,1.44,-1.42,-0.77,2.16
20.844,0.29,-1.48,0.22,1.52
20.854,-0.79,-1.15,1.29,1.90
20.864,-1.85,-0.75,2.26,3.02
20.874,-2.92,-0.63,3.14,4.34
20.884,-4.27,-0.47,4.00,5.87
20.894,-5.55,0.53,3.80,6.75
20.904,-6.87,3.03,3.91,8.47
20.914,-7.84,7.08,3.92,11.27
20.924,-7.16,10.10,3.75,12.94
20.935,-4.92,11.41,4.11,13.09
20.945,-1.83,11.54,4.03,12.36
20.953,0.84,10.19,4.57,11.20
20.964,2.67,7.84,5.23,9.80
20.973,4.09,5.01,5.41,8.42
20.984,4.85,2.46,5.10,7.46
20.993,4.71,-0.53,3.78,6.07
21.004,4.49,-5.00,1.23,6.83
21.013,3.60,-4.63,-0.04,5.86
21.023,3.46,-4.09,-2.32,5.84
21.033,3.68,-5.67,-2.78,7.31
21.044,3.68,-6.37,-2.53,7.78
21.054,3.14,-6.67,-2.29,7.72
21.064,2.07,-5.85,-1.90,6.49
21.073,1.15,-5.73,-1.29,5.99
21.083,0.34,-6.01,-0.54,6.04
21.093,-0.34,-5.98,0.08,5.99
21.103,-0.77,-5.56,0.46,5.63
21.113,-0.99,-4.94,0.86,5.11
21.123,-1.00,-4.16,1.10,4.41
21.133,-0.93,-3.44,1.20,3.76
21.143,-0.90,-2.76,1.23,3.15
21.154,-0.98,-2.08,1.32,2.65
21.163,-0.92,-1.53,1.60,2.40
21.173,-0.53,-1.39,2.00,2.49
21.183,-0.10,-1.53,2.00,2.52
21.193,0.16,-1.70,1.45,2.24
21.203,-0.06,-0.55,0.98,1.12
21.213,-0.28,1.33,0.35,1.40
21.223,-0.02,2.92,-0.59,2.98
21.233,0.50,5.32,-1.84,5.65
21.243,1.83,8.70,-3.07,9.41
21.254,3.77,8.52,-4.33,10.27
21.263,3.92,5.52,-4.94,8.39
21.273,2.61,3.15,-4.98,6.44
21.283,1.60,1.35,-4.49,4.95
21.293,1.38,-0.25,-3.98,4.22
21.303,1.50,-0.97,-3.06,3.54
21.313,1.32,-0.82,-1.47,2.14
21.323,0.50,-0.03,0.32,0.59
21.333,-1.23,2.65,1.57,3.32
21.343,-3.45,8.04,1.77,8.93
21.353,-4.33,15.10,0.87,15.73
21.363,-4.72,17.03,0.25,17.67
21.373,-5.51,11.64,2.32,13.08
21.383,-4.63,3.69,3.91,7.09
21.393,-3.22,-1.93,4.73,6.04
21.403,-1.71,-5.08,5.13,7.42
21.413,-0.37,-6.39,4.87,8.05
21.423,0.49,-5.99,4.10,7.28
21.433,1.19,-4.42,2.78,5.36
21.443,1.62,-3.19,1.25,3.79
21.452,1.48,-2.32,-0.09,2.75
21.463,0.95,-1.49,-0.79,1.94
21.472,-0.74,-0.57,-0.74,1.19
21.483,-3.42,0.38,-0.91,3.56
21.493,-5.96,1.35,-1.12,6.21
21.503,-7.17,1.62,-0.65,7.38
21.513,-6.70,1.14,0.34,6.81
21.523,-5.28,0.36,1.33,5.46
21.533,-3.72,-0.84,2.14,4.37
21.543,-2.65,-2.51,1.99,4.15
21.553,-2.14,-4.26,1.17,4.91
21.563,-1.76,-5.58,0.12,5.85
21.573,-1.46,-5.94,-0.61,6.14
21.582,-1.25,-5.33,-1.18,5.59
21.593,-1.09,-4.09,-1.69,4.56
21.602,-1.15,-2.84,-1.78,3.54
21.612,-1.16,-2.01,-1.47,2.74
21.623,-1.03,-1.24,-0.94,1.86
21.632,-0.83,-0.27,-0.25,0.91
21.642,-0.70,0.75,0.32,1.07
21.653,-0.85,1.83,0.73,2.14
21.662,-1.01,2.74,0.66,2.99
21.672,-1.23,2.88,0.35,3.15
21.682,-1.31,2.46,-0.12,2.79
21.692,-1.07,1.65,-0.75,2.10
21.702,-0.89,0.75,-1.47,1.88
21.712,-0.71,0.10,-2.39,2.50
21.722,-0.33,-0.21,-3.40,3.42
21.732,0.17,-0.59,-4.14,4.18
21.742,0.56,-1.23,-4.31,4.51
21.753,1.06,-1.75,-4.19,4.66
21.762,1.32,-2.16,-3.88,4.64
21.772,1.59,-2.07,-3.61,4.46
21.782,1.94,-1.34,-3.16,3.94
21.792,2.75,-0.26,-2.71,3.87
21.802,3.40,0.65,-2.10,4.05
21.812,3.88,1.18,-1.80,4.44
21.822,4.12,1.07,-2.21,4.79
21.832,3.97,0.97,-2.87,4.99
21.842,3.32,1.07,-3.03,4.62
21.852,2.59,0.74,-2.89,3.96
21.862,2.29,0.09,-2.66,3.51
21.872,2.38,-0.24,-2.63,3.55
21.882,2.71,-0.14,-2.40,3.63
21.892,2.48,0.19,-1.73,3.03
21.902,2.05,0.17,-1.41,2.50
21.912,1.64,-0.23,-1.37,2.15
21.922,0.78,-0.87,-0.81,1.42
21.932,-0.41,-1.20,0.34,1.31
21.942,-1.34,-0.90,1.59,2.27
21.952,-2.39,-0.55,2.46,3.48
21.962,-3.70,-0.27,3.28,4.95
21.972,-5.14,0.34,4.11,6.59
21.982,-6.35,1.68,4.15,7.77
21.992,-7.32,4.16,4.13,9.37
22.002,-7.43,7.30,3.82,11.09
22.012,-5.78,9.40,3.69,11.63
22.022,-3.16,10.02,3.98,11.24
22.032,-0.19,9.73,4.14,10.57
22.042,2.29,8.57,4.59,9.98
22.052,4.04,6.69,5.00,9.28
22.062,5.46,4.39,4.85,8.52
22.072,5.91,2.01,4.19,7.52
22.081,5.45,-1.17,2.68,6.18
22.092,4.85,-5.74,0.64,7.54
22.101,3.37,-5.77,0.02,6.68
22.111,3.17,-5.38,-2.03,6.57
22.121,3.11,-6.90,-2.40,7.94
22.131,2.49,-6.49,-1.98,7.23
22.142,2.13,-6.47,-1.67,7.02
22.151,1.27,-5.68,-0.99,5.90
22.161,0.35,-5.32,-0.65,5.37
22.171,-0.44,-5.40,-0.18,5.42
22.181,-0.97,-5.01,0.15,5.11
22.191,-1.23,-4.19,0.42,4.38
22.201,-1.34,-3.12,0.64,3.45
22.211,-1.27,-2.26,0.67,2.68
22.221,-1.24,-1.57,0.70,2.12
22.231,-1.26,-1.16,0.86,1.92
22.241,-1.17,-1.02,1.13,1.92
22.251,-0.73,-1.01,1.48,1.94
22.261,-0.19,-1.17,1.79,2.14
22.271,0.27,-1.34,1.83,2.28
22.281,0.35,-0.96,1.64,1.93
22.291,0.21,-0.03,1.29,1.30
22.301,0.31,1.34,0.74,1.56
22.311,0.86,2.74,-0.19,2.87
22.321,1.51,4.47,-1.46,4.94
22.331,2.28,6.44,-2.49,7.27
22.341,3.27,6.07,-3.29,7.64
22.351,3.22,4.07,-3.80,6.44
22.361,2.05,2.29,-4.19,5.20
22.371,0.92,1.06,-4.27,4.50
22.381,0.87,0.04,-3.93,4.02
22.391,1.53,-0.51,-3.38,3.74
22.401,2.09,-0.71,-2.48,3.32
22.411,2.13,-0.49,-1.26,2.53
22.421,1.62,0.17,-0.03,1.63
22.431,0.57,1.86,1.02,2.20
22.441,-0.67,5.33,1.55,5.60
22.451,-1.94,10.35,1.15,10.59
22.461,-2.55,13.59,-0.12,13.82
22.471,-4.09,12.30,0.90,12.99
22.481,-4.58,7.39,3.14,9.24
22.491,-4.07,1.62,4.37,6.19
22.501,-3.05,-2.24,5.09,6.34
22.511,-1.74,-4.11,5.09,6.77
22.521,-0.78,-4.45,4.32,6.25
22.531,-0.30,-3.80,3.15,4.94
22.541,-0.26,-2.93,2.02,3.56
22.551,-0.43,-2.64,0.96,2.84
22.561,-1.22,-2.40,0.39,2.72
22.571,-2.70,-1.38,0.31,3.05
22.581,-4.24,-0.21,-0.20,4.25
22.591,-5.26,0.48,-0.73,5.33
22.601,-5.23,0.28,-0.33,5.25
22.610,-4.52,-0.07,0.77,4.59
22.621,-3.68,0.05,1.90,4.14
22.631,-2.97,-0.42,2.33,3.80
22.641,-2.32,-1.93,1.74,3.48
22.651,-2.07,-3.60,0.72,4.21
22.661,-1.83,-4.83,-0.25,5.17
22.671,-1.75,-5.37,-0.75,5.70
22.681,-1.80,-5.16,-1.02,5.56
22.691,-1.79,-4.31,-1.13,4.80
22.701,-1.92,-2.97,-0.96,3.67
22.711,-2.09,-1.31,-0.50,2.52
22.720,-2.13,0.08,0.17,2.14
22.731,-2.05,1.16,0.91,2.52
22.741,-1.83,1.92,1.55,3.07
22.751,-1.64,2.16,1.33,3.02
22.760,-1.52,2.15,0.29,2.65
22.770,-1.22,1.93,-0.70,2.39
22.781,-0.87,1.21,-1.34,2.00
22.790,-0.53,0.11,-1.71,1.80
22.800,-0.29,-0.67,-2.06,2.18
22.810,-0.03,-0.85,-2.54,2.68
22.820,0.33,-0.63,-3.16,3.24
22.830,0.78,-0.24,-3.61,3.70
22.840,1.14,-0.09,-3.56,3.74
22.850,1.39,-0.15,-3.24,3.53
22.860,1.78,-0.26,-2.84,3.36
22.870,2.16,-0.35,-2.54,3.35
22.880,2.48,-0.34,-2.30,3.40
22.890,2.59,-0.10,-1.88,3.20
22.900,2.67,0.30,-1.52,3.09
22.910,2.78,0.76,-1.41,3.21
22.920,2.90,0.77,-1.61,3.41
22.930,2.83,0.46,-2.18,3.60
22.940,2.42,0.24,-2.87,3.76
22.950,1.91,0.30,-3.41,3.92
22.960,1.43,0.60,-3.53,3.86
22.970,1.04,0.81,-3.39,3.63
22.980,0.88,0.63,-3.40,3.57
22.990,1.11,0.28,-3.30,3.49
23.000,1.68,0.14,-2.77,3.24
23.010,2.26,0.32,-2.14,3.13
23.020,2.51,0.31,-1.50,2.94
23.030,2.41,-0.16,-0.91,2.58
23.040,1.89,-0.81,-0.68,2.16
23.050,1.11,-1.48,-0.40,1.89
23.060,0.25,-2.02,0.35,2.07
23.070,-0.74,-2.32,1.41,2.81
23.080,-1.79,-2.26,2.25,3.66
23.090,-2.85,-2.13,2.96,4.63
23.100,-3.73,-1.99,3.77,5.66
23.110,-4.32,-1.06,4.37,6.23
23.120,-4.57,0.81,4.44,6.42
23.130,-4.67,3.61,4.20,7.24
23.140,-4.50,6.91,3.49,8.95
23.150,-3.56,9.50,2.90,10.55
23.160,-1.68,10.66,3.20,11.25
23.171,0.65,10.56,3.41,11.11
23.179,2.64,8.89,3.83,10.03
23.190,3.93,6.15,3.99,8.32
23.199,4.54,3.07,3.73,6.63
23.210,4.30,0.26,3.05,5.28
23.219,3.58,-2.67,1.38,4.67
23.230,3.07,-5.60,-0.21,6.39
23.240,2.60,-4.80,-0.77,5.51
23.250,2.89,-4.09,-1.70,5.29
23.259,2.82,-4.16,-1.27,5.18
23.270,2.47,-3.56,-0.85,4.41
23.279,2.10,-3.16,-0.53,3.83
23.290,1.48,-3.30,-0.27,3.62
23.299,0.78,-3.28,-0.02,3.37
23.310,0.30,-3.27,0.17,3.29
23.319,-0.03,-2.86,0.48,2.90
23.329,-0.29,-2.10,0.82,2.27
23.339,-0.50,-1.41,1.01,1.80
23.350,-0.70,-0.96,1.11,1.63
23.359,-0.85,-0.78,1.18,1.65
23.369,-0.86,-0.84,1.20,1.70
23.379,-0.69,-1.14,1.14,1.75
23.389,-0.42,-1.73,1.08,2.08
23.399,-0.24,-2.34,0.92,2.52
23.409,-0.15,-2.85,0.62,2.92
23.419,-0.14,-2.98,0.35,3.01
23.429,0.01,-2.76,0.20,2.76
23.439,0.41,-2.28,0.21,2.32
23.449,0.76,-0.90,0.18,1.19
23.459,1.22,0.59,-0.32,1.39
23.469,1.76,1.70,-1.15,2.70
23.479,1.93,3.06,-1.81,4.04
23.489,1.87,3.62,-2.32,4.69
23.499,1.90,2.89,-2.75,4.42
23.509,1.24,1.56,-3.02,3.62
23.519,0.47,0.80,-2.98,3.13
23.529,0.27,0.50,-2.62,2.68
23.539,0.69,0.30,-2.16,2.29
23.549,1.32,0.21,-1.85,2.28
23.559,1.61,0.43,-1.22,2.07
23.569,1.45,1.15,-0.12,1.86
23.579,1.15,2.35,1.11,2.85
23.589,-0.19,4.57,1.80,4.91
23.599,-1.90,8.60,1.25,8.89
23.609,-2.63,13.62,-0.88,13.90
23.619,-3.55,14.74,-1.87,15.28
23.629,-4.23,10.61,0.43,11.43
23.639,-3.61,3.68,2.71,5.83
23.649,-2.41,-1.51,3.70,4.66
23.659,-1.50,-4.25,4.18,6.15
23.669,-0.90,-5.23,4.34,6.86
23.679,-0.21,-5.13,3.99,6.50
23.689,0.49,-4.38,3.01,5.33
23.699,0.89,-3.43,1.78,3.97
23.709,1.05,-2.59,0.54,2.85
23.719,0.86,-1.74,-0.21,1.95
23.729,0.31,-1.06,-0.19,1.12
23.739,-1.07,-0.35,0.46,1.22
23.749,-3.09,0.77,1.02,3.34
23.759,-5.21,1.97,1.05,5.66
23.769,-6.72,2.62,0.86,7.27
23.779,-7.17,2.26,1.05,7.59
23.789,-6.43,0.80,1.62,6.68
23.799,-5.23,-1.07,1.80,5.64
23.809,-3.80,-2.97,1.35,5.01
23.819,-2.55,-4.40,0.65,5.13
23.829,-1.68,-5.00,-0.06,5.28
23.839,-1.06,-5.05,-0.87,5.23
23.849,-0.68,-4.62,-1.62,4.94
23.859,-0.60,-4.07,-2.09,4.61
23.869,-0.63,-3.38,-2.15,4.06
23.879,-0.74,-2.25,-1.71,2.92
23.889,-0.82,-0.90,-0.93,1.53
23.899,-0.97,0.48,-0.05,1.08
23.908,-1.19,1.76,0.81,2.28
23.919,-1.43,2.73,1.25,3.33
23.928,-1.60,3.25,1.06,3.77
23.938,-1.60,3.27,0.63,3.69
23.949,-1.35,2.89,0.15,3.19
23.958,-0.91,1.98,-0.43,2.22
23.968,-0.59,0.84,-1.06,1.47
23.978,-0.47,-0.07,-1.76,1.82
23.988,-0.33,-0.67,-2.36,2.47
23.999,-0.07,-1.01,-2.71,2.89
24.008,0.23,-1.31,-2.79,3.09
24.018,0.38,-1.58,-2.79,3.24
24.028,0.28,-1.85,-2.62,3.22
24.038,0.15,-2.00,-2.39,3.12
24.048,0.16,-1.91,-2.36,3.03
24.058,0.30,-1.73,-2.28,2.88
24.068,0.76,-1.50,-2.06,2.66
24.078,1.26,-1.04,-1.57,2.27
24.088,1.55,-0.44,-1.10,1.95
24.098,1.91,-0.15,-1.07,2.20
24.108,2.06,-0.09,-1.47,2.53
24.118,1.91,-0.03,-1.88,2.69
24.128,1.49,-0.00,-2.10,2.57
24.138,0.90,0.06,-2.07,2.26
24.148,0.37,0.12,-1.87,1.91
24.158,0.18,0.05,-1.74,1.74
24.168,0.34,0.02,-1.61,1.65
24.178,0.74,0.37,-1.30,1.54
24.188,1.10,1.20,-0.82,1.82
24.198,1.27,1.98,-0.39,2.38
24.208,1.25,2.30,-0.23,2.63
24.218,1.00,1.97,-0.08,2.21
24.228,0.34,1.25,0.17,1.30
24.238,-0.61,0.46,0.71,1.04
24.248,-1.58,-0.17,1.24,2.02
24.258,-2.47,-0.85,1.84,3.19
24.268,-3.23,-1.31,2.25,4.14
24.278,-3.79,-1.50,2.55,4.81
24.288,-3.98,-1.51,3.11,5.27
24.298,-3.79,-1.09,3.79,5.47
24.308,-3.10,-0.29,4.17,5.20
24.318,-2.17,0.66,4.25,4.82
24.328,-1.53,2.03,4.19,4.91
24.338,-1.20,3.80,3.77,5.49
24.348,-0.37,5.66,3.36,6.59
24.358,1.09,7.41,2.98,8.06
24.368,2.91,8.25,2.99,9.24
24.378,4.58,7.12,2.97,8.97
24.388,5.23,4.75,2.71,7.57
24.398,4.76,1.39,2.21,5.43
24.407,3.61,-2.42,1.52,4.60
24.418,2.21,-3.77,0.81,4.44
24.427,1.47,-3.16,-0.09,3.49
24.438,1.41,-3.16,-0.39,3.48
24.448,1.42,-2.76,-0.27,3.12
24.458,1.12,-2.18,-0.27,2.46
24.467,0.68,-1.79,-0.10,1.92
24.478,0.18,-1.22,0.12,1.24
24.487,-0.10,-0.78,0.35,0.86
24.498,-0.15,-0.52,0.41,0.68
24.507,-0.20,-0.34,0.44,0.59
24.518,-0.30,-0.30,0.52,0.67
24.527,-0.41,-0.42,0.71,0.92
24.537,-0.38,-0.86,0.90,1.30
24.547,-0.23,-1.40,1.08,1.79
24.557,-0.06,-1.85,1.21,2.21
24.567,0.17,-2.08,1.21,2.41
24.577,0.33,-1.97,1.10,2.28
24.587,0.37,-1.68,0.90,1.94
24.597,0.32,-1.20,0.66,1.41
24.607,0.26,-0.73,0.38,0.87
24.617,0.19,-0.24,0.11,0.33
24.627,0.19,0.13,-0.03,0.23
24.637,0.22,0.37,-0.14,0.45
24.647,0.24,0.45,-0.19,0.55
24.657,0.19,0.42,-0.32,0.56
24.667,0.08,0.18,-0.59,0.62
24.677,0.01,-0.26,-0.86,0.90
24.687,-0.06,-0.62,-1.01,1.19
24.697,-0.01,-0.92,-1.04,1.39
24.707,0.17,-1.24,-1.03,1.62
24.717,0.47,-1.43,-0.95,1.78
24.727,0.81,-1.32,-0.69,1.70
24.737,1.08,-0.96,-0.17,1.45
24.747,1.24,-0.30,0.52,1.38
24.757,1.22,0.47,1.16,1.75
24.767,1.01,1.30,1.63,2.32
24.777,0.42,2.96,1.92,3.55
24.787,-0.65,5.76,1.70,6.04
24.797,-1.82,8.41,1.45,8.72
24.807,-2.77,8.87,1.97,9.50
24.817,-3.17,6.41,2.88,7.71
24.827,-2.89,2.63,3.25,5.08
24.837,-2.29,-0.77,3.39,4.16
24.847,-1.58,-3.04,3.44,4.86
24.857,-0.91,-4.02,3.34,5.31
24.867,-0.59,-4.05,2.96,5.05
24.877,-0.78,-3.63,2.40,4.42
24.887,-1.24,-2.85,1.86,3.63
24.897,-1.76,-1.75,1.32,2.81
24.907,-2.39,-0.44,0.76,2.55
24.917,-3.03,0.85,0.42,3.17
24.927,-3.78,1.79,0.36,4.19
24.937,-4.48,2.38,0.54,5.10
24.947,-4.69,2.19,0.79,5.23
24.957,-4.27,1.21,1.13,4.58
24.967,-3.51,-0.01,1.25,3.72
24.977,-2.79,-1.11,1.12,3.21
24.987,-2.29,-1.75,0.92,3.03
24.997,-1.88,-1.91,0.71,2.77
25.007,-1.49,-1.69,0.44,2.30
25.017,-1.10,-1.16,0.06,1.59
25.026,-0.76,-0.51,-0.21,0.94
25.036,-0.53,0.06,-0.26,0.59
25.047,-0.42,0.47,-0.07,0.64
25.057,-0.45,0.74,0.26,0.90
25.067,-0.57,0.88,0.67,1.24
25.076,-0.79,0.94,1.03,1.61
25.087,-0.98,0.98,1.24,1.86
25.096,-1.05,0.89,1.23,1.85
25.107,-0.89,0.66,0.99,1.49
25.116,-0.68,0.39,0.65,1.02
25.126,-0.60,0.12,0.27,0.67
25.136,-0.66,-0.05,-0.05,0.66
25.147,-0.66,-0.20,-0.32,0.76
25.156,-0.59,-0.31,-0.55,0.87
25.166,-0.42,-0.33,-0.70,0.88
25.176,-0.15,-0.28,-0.77,0.84
25.186,0.08,-0.26,-0.74,0.79
25.196,0.37,-0.37,-0.67,0.85
25.206,0.63,-0.56,-0.48,0.97
25.216,0.78,-0.67,-0.21,1.04
25.226,0.83,-0.53,0.07,0.99
25.237,0.80,-0.16,0.30,0.87
25.247,0.65,0.36,0.45,0.87
25.256,0.40,0.88,0.44,1.07
25.266,0.17,1.12,0.38,1.19
25.276,-0.02,0.97,0.32,1.02
25.286,-0.19,0.64,0.26,0.72
25.296,-0.34,0.28,0.15,0.46
25.306,-0.50,-0.06,0.05,0.50
25.316,-0.63,-0.29,-0.02,0.70
25.326,-0.73,-0.37,-0.03,0.82
25.336,-0.76,-0.39,-0.01,0.86
25.346,-0.74,-0.41,0.07,0.85
25.356,-0.72,-0.37,0.16,0.82
25.366,-0.70,-0.26,0.21,0.78
25.376,-0.68,-0.03,0.29,0.74
25.386,-0.67,0.22,0.28,0.76
25.396,-0.58,0.35,0.25,0.72
25.406,-0.52,0.47,0.33,0.78
25.416,-0.55,0.47,0.33,0.80
25.426,-0.63,0.35,0.19,0.74
25.436,-0.70,0.25,0.04,0.74
25.446,-0.77,0.19,-0.03,0.79
25.456,-0.83,0.11,-0.07,0.84
25.466,-0.86,0.02,-0.11,0.86
25.476,-0.82,-0.12,-0.11,0.84
25.486,-0.78,-0.27,-0.04,0.83
25.496,-0.73,-0.38,-0.01,0.83
25.506,-0.69,-0.47,0.02,0.84
25.516,-0.68,-0.51,-0.02,0.85
25.526,-0.70,-0.52,-0.12,0.88
25.535,-0.72,-0.47,-0.24,0.90
25.545,-0.75,-0.36,-0.37,0.90
25.556,-0.84,-0.19,-0.47,0.98
25.566,-1.06,0.02,-0.61,1.22
25.575,-1.13,0.05,-0.74,1.35
25.586,-1.03,0.12,-0.73,1.27
25.595,-1.02,0.20,-0.68,1.24
25.605,-0.98,0.20,-0.59,1.17
25.615,-0.94,0.23,-0.59,1.13
25.625,-0.87,0.26,-0.43,1.00
25.635,-0.78,0.18,-0.17,0.82
25.645,-0.70,0.18,-0.14,0.74
25.655,-0.67,0.12,-0.02,0.68
25.665,-0.74,0.02,-0.04,0.74
25.675,-0.84,-0.17,-0.09,0.87
25.685,-0.93,-0.33,-0.25,1.02
25.695,-0.97,-0.36,-0.40,1.11
25.705,-0.98,-0.41,-0.51,1.18
25.715,-0.98,-0.39,-0.54,1.19
25.725,-1.00,-0.31,-0.57,1.20
25.735,-1.01,-0.19,-0.61,1.19
25.745,-1.02,-0.08,-0.59,1.17
25.755,-1.04,0.04,-0.40,1.12
25.765,-1.06,0.05,-0.24,1.09
25.775,-1.02,-0.11,-0.13,1.04
25.785,-0.86,-0.15,0.04,0.88
25.795,-0.61,-0.06,0.18,0.64
25.805,-0.32,0.11,0.25,0.42
25.815,-0.03,0.36,0.25,0.43
25.825,0.18,0.50,0.15,0.55
25.835,0.25,0.47,0.04,0.53
25.845,0.08,0.34,-0.17,0.39
25.855,-0.25,-0.00,-0.41,0.49
25.865,-0.58,-0.52,-0.70,1.05
25.875,-0.79,-1.05,-0.87,1.58
25.885,-0.86,-1.41,-0.98,1.92
25.895,-1.06,-1.58,-0.95,2.13
25.905,-1.24,-1.84,-1.04,2.44
25.915,-1.39,-1.91,-1.00,2.57
25.925,-1.41,-1.69,-0.79,2.34
25.935,-1.38,-0.96,-0.90,1.90
25.945,-1.36,-0.52,-0.86,1.69
25.955,-1.05,-0.30,-0.51,1.21
25.965,-0.76,0.18,-0.41,0.88
25.975,-0.39,0.52,-0.30,0.71
25.985,0.02,0.76,-0.19,0.78
25.995,0.39,0.92,-0.17,1.02
26.005,0.68,0.84,-0.33,1.13
26.015,0.92,0.58,-0.56,1.22
26.025,1.22,0.57,-0.27,1.37
26.035,1.40,0.52,-0.37,1.54
26.045,1.51,0.47,-0.53,1.67
26.055,1.66,0.60,-0.53,1.84
26.065,1.76,0.83,-0.62,2.04
26.075,1.74,1.05,-0.77,2.18
26.085,1.67,1.11,-0.79,2.16
26.095,1.67,0.96,-0.61,2.02
26.105,1.56,0.61,-1.00,1.95
26.115,1.33,0.39,-1.62,2.13
26.125,1.25,0.12,-1.50,1.96
26.135,1.21,-0.04,-1.37,1.83
26.145,1.12,-0.26,-1.46,1.86
26.155,1.11,-0.25,-1.52,1.90
26.165,1.28,-0.01,-1.37,1.87
26.175,1.47,0.24,-1.19,1.91
26.185,1.69,0.48,-0.99,2.01
26.195,1.88,0.59,-0.99,2.21
26.205,1.94,0.47,-1.01,2.24
26.215,1.89,0.28,-0.94,2.13
26.225,1.77,0.06,-0.89,1.99
26.235,1.70,-0.09,-0.83,1.89
26.245,1.71,-0.05,-0.67,1.84
26.255,1.74,0.00,-0.66,1.86
26.264,1.84,0.14,-0.66,1.96
26.274,1.99,0.30,-0.64,2.11
26.284,1.89,-0.20,-0.85,2.08
26.294,1.60,-0.76,-1.33,2.21
26.305,1.73,-0.64,-1.00,2.10
26.314,1.87,-0.51,-0.70,2.06
26.324,1.89,-0.20,-0.50,1.97
26.334,1.84,0.09,-0.36,1.87
26.345,1.83,0.16,-0.37,1.88
26.354,1.86,0.03,-0.35,1.89
26.364,1.89,-0.22,-0.39,1.94
26.374,1.85,-0.11,-0.33,1.88
26.384,1.84,-0.00,-0.26,1.86
26.394,1.85,0.19,-0.13,1.86
26.404,1.62,0.32,-0.31,1.68
26.414,1.59,0.51,-0.38,1.71
26.424,1.92,-0.07,-0.15,1.93
26.434,1.93,-0.83,-0.23,2.11
26.444,1.68,-0.62,-0.45,1.85
26.454,1.53,-0.32,-0.43,1.62
26.464,1.21,0.13,-0.39,1.28
26.474,0.93,0.85,-0.16,1.27
26.484,0.69,1.61,0.02,1.75
26.494,0.43,2.12,0.26,2.18
26.504,0.25,2.66,0.53,2.72
26.514,0.09,2.85,0.30,2.86
26.524,0.25,2.85,-0.16,2.86
26.534,0.02,2.53,-0.83,2.66
26.544,-0.55,2.47,-0.70,2.63
26.554,-0.35,1.87,-0.74,2.04
26.564,0.09,0.76,0.12,0.77
26.574,0.82,0.29,0.62,1.07
26.584,0.42,1.33,0.89,1.65
26.594,0.51,1.99,0.33,2.08
26.604,0.35,2.69,-0.41,2.74
26.614,0.59,3.59,-0.25,3.65
26.624,1.02,4.56,0.24,4.68
26.634,0.80,6.06,0.18,6.12
26.644,1.54,3.79,-1.61,4.40
26.654,1.76,4.90,-1.66,5.46
26.664,0.93,-0.15,2.23,2.42
26.674,0.70,-0.98,1.30,1.78
26.684,0.28,-0.72,0.30,0.83
26.694,-0.32,-0.48,1.21,1.34
26.704,-1.01,-2.17,1.17,2.67
26.714,-1.84,-1.95,0.62,2.75
26.724,-2.16,-0.09,-0.09,2.17
26.734,-1.76,1.20,-0.86,2.30
26.743,-1.08,1.51,-0.75,2.00
26.754,-0.96,0.73,-0.61,1.35
26.763,-1.01,-0.94,0.24,1.40
26.774,-0.82,-2.42,0.96,2.73
26.784,-0.84,-3.01,1.16,3.33
26.794,-1.37,-4.85,1.85,5.36
26.803,-1.09,-5.07,1.71,5.46
26.814,0.72,-3.38,-0.28,3.46
26.824,-0.40,-1.67,0.43,1.77
26.834,-0.60,-2.01,0.81,2.25
26.844,-0.72,-0.31,-0.23,0.82
26.853,-1.02,3.37,-0.64,3.58
26.863,-0.62,4.04,-1.65,4.41
26.874,-0.27,3.68,-1.14,3.86
26.883,0.50,1.53,0.55,1.70
26.894,1.42,0.20,1.80,2.30
26.903,1.82,0.20,2.31,2.95
26.913,1.43,1.76,0.87,2.43
26.923,0.80,4.12,-0.05,4.20
26.933,0.39,7.19,-0.00,7.20
26.943,-0.28,8.98,-1.22,9.07
26.953,-1.49,7.41,-1.33,7.68
26.963,-1.86,5.31,1.42,5.81
26.973,-2.60,6.69,0.83,7.22
26.983,-2.92,3.33,-0.10,4.42
26.993,-2.20,-1.87,-1.05,3.08
27.003,-2.22,-4.18,1.64,5.01
27.013,-2.16,-4.85,5.20,7.43
27.023,-0.91,-5.55,6.10,8.30
27.033,0.87,-6.49,5.26,8.40
27.043,1.80,-6.73,4.62,8.36
27.053,1.69,-6.08,3.73,7.33
27.063,1.30,-4.55,3.29,5.77
27.073,1.34,-2.54,3.04,4.18
27.083,2.22,-0.86,3.51,4.24
27.093,3.09,0.09,4.30,5.30
27.103,3.37,0.20,4.83,5.89
27.113,3.87,-1.06,4.69,6.17
27.123,4.26,-2.30,4.75,6.78
27.133,4.28,-2.76,5.35,7.39
27.143,4.35,-2.79,5.00,7.19
27.153,4.16,-2.36,3.95,6.20
27.163,3.71,-1.18,4.26,5.77
27.173,3.84,-0.10,4.47,5.90
27.183,3.93,0.55,4.02,5.65
27.193,3.55,0.11,2.82,4.53
27.203,3.25,0.05,2.60,4.16
27.213,4.13,0.46,4.07,5.82
27.223,5.18,0.59,5.09,7.29
27.233,5.64,0.71,5.46,7.88
27.243,5.82,1.10,5.07,7.80
27.253,5.54,1.49,4.13,7.07
27.263,4.97,1.63,3.23,6.15
27.273,4.60,1.28,2.55,5.41
27.283,4.51,0.71,1.91,4.95
27.293,4.77,0.62,2.19,5.29
27.303,5.45,0.86,2.62,6.11
27.313,6.40,1.23,2.18,6.87
27.323,7.05,2.08,1.17,7.45
27.333,7.41,3.13,0.35,8.05
27.342,7.52,3.52,-0.37,8.31
27.353,7.37,3.27,-0.64,8.09
27.362,6.97,2.72,-0.88,7.54
27.372,6.34,1.94,-1.47,6.79
27.383,5.75,1.49,-1.33,6.09
27.392,5.78,1.53,-0.94,6.05
27.402,6.22,1.59,-1.09,6.51
27.413,6.74,1.70,-1.49,7.11
27.422,7.09,1.85,-2.07,7.61
27.432,6.78,2.08,-2.38,7.48
27.443,6.21,1.81,-2.42,6.90
27.452,5.44,0.88,-3.29,6.42
27.462,4.27,0.22,-3.80,5.72
27.473,4.06,0.38,-3.43,5.33
27.482,4.67,1.05,-3.48,5.91
27.492,4.74,1.87,-3.66,6.27
27.502,4.46,2.49,-3.90,6.43
27.512,3.80,2.80,-4.25,6.35
27.522,2.99,2.56,-4.82,6.23
27.532,2.02,2.14,-5.33,6.08
27.542,1.03,1.67,-5.44,5.78
27.552,1.03,0.91,-5.14,5.32
27.563,1.59,0.48,-4.65,4.94
27.572,1.82,0.75,-3.62,4.12
27.582,1.70,1.13,-3.24,3.83
27.592,1.55,1.20,-3.85,4.32
27.602,1.27,1.24,-4.27,4.63
27.612,0.81,1.43,-4.62,4.90
27.622,0.36,1.67,-4.65,4.95
27.632,-0.01,1.82,-4.47,4.83
27.642,0.03,1.58,-4.68,4.94
27.652,0.73,1.21,-4.43,4.65
27.662,1.23,1.25,-3.74,4.13
27.672,1.46,1.33,-2.66,3.32
27.682,4.17,3.27,12.02,13.13
27.692,3.74,-0.35,-7.69,8.56
27.702,2.11,0.55,-1.52,2.66
27.712,2.19,2.87,4.82,6.02
27.722,0.59,0.67,2.67,2.81
27.732,-0.39,-1.56,-1.81,2.42
27.742,0.03,-1.93,-2.82,3.42
27.752,0.17,-1.89,-1.81,2.62
27.762,-0.60,-1.46,0.80,1.77
27.772,-1.63,-1.65,3.99,4.61
27.782,-1.54,-2.02,3.48,4.30
27.792,-0.78,-2.10,1.18,2.53
27.802,0.07,-0.95,0.49,1.07
27.812,0.28,0.85,0.32,0.95
27.822,0.10,1.89,-1.11,2.19
27.832,-0.04,2.15,-2.49,3.30
27.842,1.02,2.24,-2.90,3.81
27.852,3.28,2.36,-2.31,4.66
27.862,3.81,1.69,-1.99,4.62
27.872,3.09,1.54,-1.29,3.69
27.882,1.60,0.95,0.41,1.91
27.892,-0.15,-0.33,0.82,0.90
27.902,-1.67,-0.45,1.17,2.08
27.912,-2.12,0.38,1.20,2.47
27.922,-1.79,0.38,1.02,2.09
27.932,-1.62,-0.26,0.56,1.73
27.942,-1.19,-0.23,-0.93,1.52
27.952,-0.21,-0.32,-2.39,2.42
27.962,0.39,-0.17,-2.23,2.27
27.972,0.34,0.33,-1.38,1.46
27.982,-0.08,0.59,-0.53,0.79
27.992,-0.39,0.36,0.05,0.53
28.001,-0.63,0.10,0.27,0.69
28.012,-0.63,-0.02,0.65,0.91
28.022,-0.30,-0.02,0.85,0.90
28.032,0.12,-0.07,0.57,0.59
28.042,0.33,-0.26,-0.15,0.45
28.052,0.52,-0.22,-0.88,1.05
28.062,0.75,-0.03,-1.50,1.68
28.071,0.72,-0.01,-1.79,1.93
28.081,0.61,-0.11,-1.40,1.53
28.091,0.49,-0.26,-0.55,0.78
28.101,0.45,-0.34,0.03,0.57
28.112,0.58,-0.31,0.19,0.68
28.121,0.73,-0.31,0.03,0.79
28.131,0.88,-0.38,-0.18,0.97
28.141,1.06,-0.29,-0.22,1.12
28.151,1.21,-0.33,-0.01,1.25
28.161,1.32,-0.62,0.55,1.56
28.171,1.31,-0.87,1.04,1.89
28.181,1.27,-0.92,1.23,1.99
28.192,1.21,-0.73,1.00,1.74
28.201,1.07,-0.45,0.70,1.36
28.211,0.88,-0.23,0.77,1.19
28.221,0.76,-0.04,0.93,1.20
28.231,0.72,-0.04,0.89,1.15
28.241,0.87,-0.13,0.70,1.13
28.251,1.15,-0.17,0.44,1.24
28.261,1.27,-0.26,0.29,1.33
28.271,1.26,-0.37,0.08,1.32
28.281,1.14,-0.30,0.02,1.18
28.291,0.93,-0.22,0.11,0.96
28.301,0.71,-0.19,0.31,0.80
28.311,0.55,-0.10,0.43,0.71
28.321,0.48,-0.02,0.38,0.61
28.331,0.49,-0.06,0.21,0.54
28.341,0.49,-0.18,0.12,0.53
28.351,0.52,-0.21,0.05,0.56
28.361,0.55,-0.20,-0.06,0.59
28.371,0.54,-0.20,-0.18,0.60
28.381,0.53,-0.13,-0.30,0.62
28.391,0.40,-0.14,-0.29,0.51
28.401,0.32,-0.09,-0.15,0.36
28.411,0.26,-0.11,-0.05,0.28
28.421,0.15,-0.15,-0.04,0.22
28.431,0.13,-0.00,-0.09,0.16
28.441,0.19,0.10,-0.22,0.31
28.451,0.27,0.07,-0.30,0.41
28.461,0.33,0.01,-0.26,0.42
28.471,0.33,0.00,-0.10,0.35
28.481,0.34,-0.09,0.10,0.36
28.491,0.33,-0.22,0.10,0.41
28.501,0.36,-0.20,-0.10,0.43
28.511,0.42,-0.11,-0.29,0.52
28.521,0.40,-0.09,-0.40,0.57
28.531,0.37,0.01,-0.42,0.56
28.541,0.36,0.06,-0.36,0.51
28.550,0.35,0.00,-0.18,0.39
28.561,0.37,-0.08,0.09,0.39
28.571,0.34,-0.23,0.27,0.49
28.581,0.26,-0.37,0.55,0.71
28.591,0.23,-0.42,0.87,0.99
28.601,0.12,-0.42,1.00,1.10
28.611,0.09,-0.35,0.87,0.94
28.620,0.08,-0.30,0.62,0.69
28.631,0.08,-0.25,0.46,0.53
28.641,0.17,-0.17,0.32,0.40
28.651,0.14,-0.21,0.25,0.35
28.660,0.14,-0.28,0.33,0.46
28.670,0.21,-0.33,0.41,0.57
28.681,0.28,-0.35,0.34,0.56
28.690,0.36,-0.35,0.19,0.54
28.700,0.40,-0.35,0.10,0.54
28.710,0.41,-0.35,0.14,0.56
28.720,0.40,-0.38,0.19,0.58
28.730,0.35,-0.38,0.25,0.57
28.740,0.33,-0.32,0.30,0.55
28.750,0.36,-0.29,0.28,0.54
28.760,0.35,-0.20,0.24,0.47
28.770,0.39,-0.11,0.09,0.41
28.780,0.48,-0.07,-0.12,0.50
28.790,0.52,-0.07,-0.28,0.60
28.800,0.54,-0.05,-0.30,0.62
28.810,0.49,-0.05,-0.16,0.52
28.820,0.40,-0.02,0.08,0.41
28.830,0.34,-0.02,0.34,0.48
28.840,0.25,-0.08,0.52,0.59
28.850,0.17,-0.07,0.58,0.61
28.860,0.13,-0.03,0.56,0.58
28.870,0.16,0.01,0.47,0.50
28.880,0.21,0.06,0.33,0.39
28.890,0.27,0.05,0.23,0.35
28.900,0.27,0.00,0.13,0.30
28.910,0.28,-0.02,0.08,0.29
28.920,0.28,-0.01,0.13,0.31
28.930,0.29,-0.07,0.09,0.31
28.940,0.31,-0.15,0.06,0.35
28.950,0.34,-0.18,0.06,0.39
28.960,0.23,-0.19,0.20,0.36
28.970,0.13,-0.16,0.39,0.44
28.980,0.10,-0.18,0.52,0.56
28.990,0.07,-0.22,0.54,0.59
29.000,0.08,-0.14,0.47,0.50
29.010,0.15,-0.05,0.25,0.30
29.020,0.19,0.02,-0.08,0.21
29.030,0.22,0.04,-0.31,0.38
29.040,0.24,0.10,-0.39,0.47
29.050,0.21,0.08,-0.37,0.43
29.060,0.14,0.01,-0.16,0.22
29.070,-0.01,-0.12,0.33,0.35
29.080,-0.14,-0.21,0.74,0.79
29.090,-0.19,-0.23,0.99,1.03
29.100,-0.19,-0.21,0.88,0.93
29.110,-0.09,-0.07,0.60,0.61
29.120,0.03,0.10,0.24,0.26
29.130,0.10,0.16,-0.05,0.19
29.139,0.17,0.12,-0.06,0.21
29.150,0.20,0.02,0.04,0.21
29.159,0.21,-0.05,0.28,0.36
29.170,0.18,-0.14,0.40,0.46
29.179,0.17,-0.15,0.37,0.43
29.189,0.18,-0.09,0.29,0.35
29.199,0.18,-0.05,0.03,0.19
29.210,0.27,0.06,-0.27,0.39
29.219,0.30,0.05,-0.41,0.51
29.230,0.34,0.01,-0.40,0.53
29.240,0.39,-0.04,-0.32,0.50
29.250,0.42,-0.10,-0.18,0.47
29.259,0.42,-0.14,-0.01,0.44
29.270,0.36,-0.15,0.09,0.40
29.279,0.30,-0.12,0.15,0.36
29.290,0.23,-0.08,0.13,0.28
29.299,0.18,-0.05,0.15,0.24
29.309,0.18,-0.06,0.17,0.26
29.319,0.24,-0.03,0.15,0.29
29.329,0.28,-0.05,0.12,0.31
29.339,0.32,-0.07,0.08,0.34
29.349,0.35,-0.05,0.04,0.35
29.359,0.37,-0.08,0.09,0.39
29.369,0.39,-0.20,0.11,0.45
29.379,0.43,-0.24,0.19,0.53
29.389,0.42,-0.27,0.36,0.61
29.399,0.36,-0.31,0.46,0.66
29.409,0.31,-0.26,0.55,0.68
29.419,0.32,-0.17,0.58,0.69
29.429,0.25,-0.17,0.41,0.51
29.439,0.29,-0.09,0.26,0.40
29.449,0.33,0.04,0.24,0.41
29.459,0.31,-0.01,0.17,0.35
29.469,0.31,-0.02,0.17,0.35
29.479,0.32,-0.03,0.23,0.39
29.489,0.29,-0.13,0.30,0.43
29.499,0.22,-0.20,0.36,0.47
29.509,0.19,-0.15,0.35,0.42
29.519,0.17,-0.08,0.22,0.29
29.529,0.17,-0.04,0.10,0.20
29.539,0.21,-0.01,0.00,0.21
29.549,0.29,0.06,-0.02,0.29
29.559,0.32,0.01,0.04,0.32
29.569,0.29,-0.08,0.14,0.33
29.579,0.23,-0.05,0.29,0.37
29.589,0.15,-0.04,0.29,0.33
29.599,0.11,-0.01,0.22,0.25
29.609,0.12,-0.01,0.22,0.25
29.619,0.17,-0.10,0.29,0.35
29.629,0.21,-0.19,0.34,0.44
29.639,0.24,-0.21,0.40,0.51
29.649,0.23,-0.18,0.46,0.55
29.659,0.23,-0.11,0.37,0.45
29.669,0.22,-0.05,-0.26,0.34
29.679,0.06,0.46,-0.92,1.04
29.689,0.10,0.50,-0.92,1.05
29.699,0.12,0.38,-0.92,1.00
29.709,0.33,0.09,-0.25,0.42
29.719,0.32,-0.32,0.47,0.65
29.729,0.17,-0.31,1.09,1.14
29.739,0.14,-0.21,1.15,1.17
29.749,0.16,-0.21,0.75,0.79
29.759,0.22,-0.09,0.38,0.45
29.769,0.34,-0.01,0.08,0.35
29.778,0.41,0.01,-0.14,0.43
29.789,0.43,0.06,-0.22,0.49
29.799,0.40,0.07,-0.07,0.41
29.809,0.32,0.02,0.15,0.35
29.819,0.27,-0.07,0.35,0.45
29.829,0.25,-0.19,0.51,0.60
29.838,0.25,-0.22,0.62,0.70
29.848,0.20,-0.19,0.60,0.66
29.858,0.18,-0.10,0.47,0.51
29.868,0.21,0.03,0.22,0.31
29.878,0.24,0.10,-0.08,0.27
29.889,0.25,0.15,-0.21,0.37
29.898,0.29,0.16,-0.20,0.39
29.908,0.27,0.08,-0.07,0.29
29.918,0.26,-0.06,0.19,0.33
29.928,0.24,-0.19,0.40,0.50
29.938,0.23,-0.26,0.48,0.59
29.948,0.24,-0.25,0.44,0.56
29.958,0.22,-0.18,0.32,0.43
29.968,0.21,-0.05,0.11,0.24
29.978,0.22,0.07,-0.15,0.28
29.988,0.26,0.10,-0.16,0.32
29.998,0.29,0.03,-0.04,0.29
30.008,0.31,-0.06,0.15,0.35
30.018,0.32,-0.15,0.32,0.48
30.028,0.32,-0.18,0.38,0.53
30.038,0.31,-0.16,0.33,0.48
30.048,0.27,-0.16,0.27,0.42
30.058,0.29,-0.13,0.22,0.39
30.068,0.30,-0.11,0.12,0.34
30.078,0.33,-0.10,0.13,0.37
30.088,0.36,-0.06,0.13,0.38
30.098,0.38,-0.04,0.09,0.39
30.108,0.42,-0.04,0.03,0.42
30.118,0.43,-0.08,-0.01,0.44
30.128,0.45,-0.15,0.06,0.48
30.138,0.46,-0.23,0.10,0.52
30.148,0.43,-0.27,0.18,0.54
30.158,0.37,-0.23,0.23,0.49
30.168,0.28,-0.19,0.27,0.43
30.178,0.22,-0.15,0.28,0.38
30.188,0.17,-0.10,0.22,0.29
30.198,0.12,-0.07,0.20,0.25
30.208,0.14,-0.04,0.16,0.21
30.218,0.14,-0.03,0.15,0.21
30.228,0.14,-0.06,0.21,0.26
30.238,0.17,-0.11,0.28,0.34
30.248,0.16,-0.14,0.34,0.40
30.258,0.11,-0.12,0.41,0.44
30.268,0.04,-0.06,0.48,0.48
30.278,0.00,-0.04,0.47,0.47
30.288,0.04,0.08,-0.72,0.73
30.298,-0.17,1.13,-2.47,2.72
30.308,0.01,0.53,-0.74,0.91
30.318,0.22,-0.07,-0.48,0.53
30.328,0.43,-0.33,0.83,0.99
30.338,0.23,-0.51,1.26,1.38
30.348,0.05,-0.33,0.63,0.72
30.358,0.15,-0.04,-0.02,0.15
30.368,0.28,0.26,-0.09,0.39
30.377,0.33,0.29,-0.01,0.44
30.387,0.35,0.20,0.05,0.41
30.398,0.37,0.16,0.14,0.43
30.407,0.31,0.16,0.21,0.41
30.417,0.23,0.16,0.29,0.40
30.427,0.13,0.16,0.40,0.45
30.437,0.03,0.13,0.56,0.57
30.447,-0.00,0.07,0.65,0.65
30.457,0.03,0.02,0.69,0.69
30.467,0.16,-0.02,0.56,0.58
30.477,0.29,-0.01,0.31,0.42
30.487,0.39,0.01,0.03,0.39
30.497,0.46,0.01,-0.19,0.49
30.507,0.43,-0.02,-0.26,0.50
30.517,0.39,-0.07,-0.08,0.41
30.527,0.35,-0.17,0.11,0.40
30.537,0.29,-0.18,0.31,0.46
30.547,0.27,-0.11,0.38,0.48
30.557,0.28,-0.08,0.22,0.36
30.567,0.31,-0.11,0.02,0.33
30.577,0.32,-0.11,-0.05,0.34
30.587,0.28,-0.13,-0.01,0.31
30.597,0.22,-0.18,0.13,0.31
30.607,0.21,-0.24,0.16,0.36
30.617,0.23,-0.22,0.08,0.33
30.627,0.26,-0.10,0.01,0.28
30.637,0.29,-0.05,0.01,0.29
30.647,0.29,-0.04,-0.03,0.29
30.657,0.27,0.02,-0.04,0.27
30.667,0.21,0.04,0.08,0.23
30.677,0.04,0.03,0.27,0.27
30.687,-0.03,0.16,0.45,0.47
30.697,-0.06,0.19,0.49,0.53
30.707,-0.06,0.18,0.36,0.41
30.717,0.03,0.25,0.20,0.32
30.727,0.12,0.28,0.03,0.31
30.737,0.17,0.26,-0.07,0.32
30.747,0.19,0.16,0.06,0.26
30.757,0.23,-0.00,0.22,0.31
30.767,0.28,-0.09,0.29,0.41
30.777,0.28,-0.14,0.31,0.44
30.787,0.28,-0.22,0.34,0.49
30.797,0.30,-0.20,0.32,0.48
30.807,0.32,-0.16,0.33,0.49
30.817,0.31,-0.19,0.36,0.52
30.827,0.32,-0.28,0.32,0.54
30.837,0.40,-0.35,0.31,0.62
30.847,0.43,-0.36,0.24,0.61
30.857,0.46,-0.31,0.14,0.57
30.867,0.51,-0.33,0.04,0.61
30.877,0.50,-0.32,-0.06,0.60
30.887,0.50,-0.27,-0.03,0.57
30.897,0.49,-0.34,-0.02,0.60
30.907,0.51,-0.36,0.02,0.62
30.917,0.52,-0.38,0.12,0.66
30.926,0.49,-0.40,0.22,0.67
30.936,0.45,-0.36,0.31,0.65
30.946,0.42,-0.25,0.27,0.56
30.956,0.43,-0.12,0.10,0.46
30.966,0.45,-0.01,-0.11,0.46
30.976,0.46,0.04,-0.21,0.51
30.986,0.45,0.01,-0.20,0.49
30.996,0.39,0.04,-0.08,0.40
31.006,0.31,0.06,0.17,0.36
31.016,0.19,-0.03,0.49,0.53
31.026,0.10,-0.10,0.79,0.80
31.036,0.03,-0.08,0.93,0.93
31.046,-0.02,-0.03,0.89,0.89
31.056,-0.02,-0.00,0.58,0.58
31.066,-0.08,0.10,-1.55,1.56
31.076,0.16,0.56,-0.59,0.83
31.086,0.15,0.33,-0.68,0.77
31.096,0.25,0.07,0.54,0.60
31.106,0.05,-0.22,1.09,1.11
31.116,0.01,-0.35,1.05,1.11
