time,ax,ay,az,atotal
0.000,0.05,-0.50,-0.00,0.50
0.010,0.23,-0.71,0.15,0.76
0.020,0.28,-0.75,0.16,0.82
0.030,0.06,-0.78,-0.04,0.78
0.040,0.04,-0.70,-0.04,0.70
0.050,0.12,-0.58,0.00,0.59
0.060,0.26,-0.17,0.24,0.39
0.070,0.40,0.22,0.16,0.48
0.080,0.49,-0.08,0.28,0.57
0.090,0.55,-0.48,0.40,0.83
0.100,0.38,-0.79,0.41,0.97
0.110,-0.01,-0.85,0.54,1.01
0.120,-0.41,-0.70,0.81,1.14
0.130,-0.62,-0.79,0.78,1.27
0.140,-0.65,-1.10,0.76,1.48
0.150,-0.57,-1.42,0.85,1.75
0.160,-0.40,-1.91,0.66,2.06
0.170,-0.35,-1.95,0.41,2.02
0.180,-0.45,-1.33,0.31,1.44
0.190,-0.66,-0.19,0.52,0.86
0.200,-0.79,0.45,0.81,1.22
0.210,-1.01,0.32,0.85,1.36
0.220,-1.05,-0.16,1.04,1.49
0.230,-1.00,-0.77,1.43,1.91
0.240,-0.91,-1.46,1.17,2.09
0.250,-0.69,-2.16,0.71,2.37
0.259,-0.45,-2.41,0.46,2.49
0.270,-0.45,-1.81,0.43,1.92
0.280,-0.59,-1.24,0.75,1.57
0.290,-1.11,0.08,0.95,1.47
0.300,-1.12,3.25,1.59,3.79
0.310,-0.77,4.00,1.69,4.41
0.320,0.20,3.44,1.23,3.66
0.330,0.83,1.77,0.22,1.97
0.340,0.95,0.18,0.16,0.98
0.349,0.66,-1.68,0.19,1.81
0.360,0.55,-3.08,0.68,3.21
0.369,0.54,-3.59,1.27,3.85
0.379,-0.01,-3.35,1.05,3.51
0.389,-0.95,-1.36,-0.36,1.70
0.399,-1.78,0.12,-2.98,3.47
0.409,0.42,0.73,-0.70,1.10
0.419,0.70,0.99,-0.28,1.25
0.429,0.48,0.60,0.36,0.85
0.439,0.68,-0.05,1.55,1.70
0.449,0.12,-0.64,0.55,0.85
0.459,-1.28,-0.34,0.63,1.47
0.469,-2.47,-0.08,0.36,2.50
0.479,-3.00,-0.05,2.10,3.66
0.489,-2.07,-0.93,4.79,5.30
0.499,-1.19,-1.46,6.57,6.83
0.509,-0.89,-1.15,9.65,9.76
0.519,-0.76,-0.71,10.97,11.02
0.529,-1.01,-0.32,11.21,11.26
0.539,-1.49,-0.16,10.28,10.39
0.549,-2.77,-0.07,9.48,9.88
0.559,-4.21,0.83,8.43,9.46
0.569,-5.43,1.36,6.22,8.37
0.579,-6.34,2.48,5.84,8.97
0.589,-6.81,3.99,4.46,9.07
0.599,-7.41,5.35,2.88,9.58
0.609,-7.86,6.56,1.58,10.36
0.619,-7.66,7.42,-0.60,10.69
0.629,-7.11,8.75,-1.39,11.36
0.639,-6.23,9.32,-2.63,11.52
0.649,-5.23,8.52,-5.38,11.36
0.659,-4.44,7.10,-6.93,10.87
0.669,-3.94,6.04,-6.71,9.85
0.679,-3.36,5.49,-5.57,8.51
0.689,-2.45,4.78,-6.75,8.63
0.699,-1.56,4.48,-8.07,9.36
0.709,-0.74,4.42,-8.67,9.76
0.719,0.04,4.37,-8.38,9.45
0.729,1.15,3.49,-8.25,9.03
0.739,2.00,2.16,-8.11,8.63
0.749,2.74,1.65,-7.98,8.59
0.759,3.52,1.52,-8.15,9.01
0.769,4.12,1.20,-7.69,8.81
0.779,4.45,0.85,-6.85,8.21
0.789,4.69,0.45,-6.77,8.25
0.799,4.95,0.04,-6.44,8.12
0.809,4.83,0.14,-4.88,6.87
0.819,5.06,1.15,-4.41,6.81
0.829,5.51,1.10,-5.66,7.98
0.839,5.72,0.11,-6.41,8.59
0.849,6.07,-0.35,-6.69,9.04
0.859,6.27,-0.52,-6.39,8.97
0.869,6.77,0.39,-6.94,9.70
0.879,7.11,1.66,-6.77,9.95
0.889,7.10,2.33,-5.42,9.23
0.899,7.00,2.02,-4.24,8.43
0.908,6.63,1.10,-3.27,7.48
0.919,6.09,0.06,-2.04,6.42
0.929,6.62,-0.45,-1.17,6.74
0.939,8.08,-0.93,-1.19,8.22
0.948,5.82,-3.43,-1.50,6.92
0.959,3.38,-5.28,0.52,6.29
0.969,4.96,-3.38,1.27,6.13
0.978,5.49,-2.89,2.75,6.79
0.988,5.57,-3.41,3.20,7.27
0.999,5.41,-4.10,3.97,7.86
1.008,5.05,-3.58,4.93,7.91
1.019,4.27,-1.96,7.40,8.76
1.028,3.25,-0.02,7.16,7.86
1.038,2.06,1.03,3.75,4.40
1.048,-0.38,1.64,2.68,3.17
1.058,-1.57,2.71,1.33,3.41
1.068,-1.72,3.47,-1.84,4.28
1.078,-2.92,2.97,-2.74,4.99
1.088,-3.35,2.42,-2.59,4.87
1.098,-3.41,1.25,-2.66,4.50
1.108,-2.26,0.61,-2.94,3.76
1.118,-1.08,0.11,-3.06,3.24
1.128,-0.48,-0.46,-3.88,3.93
1.138,0.68,-0.43,-4.77,4.84
1.148,1.31,-0.80,-2.78,3.18
1.158,2.86,0.51,-2.93,4.13
1.168,2.57,0.60,-2.42,3.58
1.178,1.03,-1.02,-0.57,1.56
1.188,1.18,-1.77,-0.96,2.34
1.198,-1.17,-5.50,-2.41,6.12
1.208,-3.07,-7.84,1.45,8.55
1.218,-2.52,-7.15,4.13,8.63
1.228,-1.67,-6.75,4.29,8.17
1.238,-0.77,-5.94,2.92,6.67
1.248,-0.64,-5.14,3.82,6.43
1.258,-0.73,-2.74,4.15,5.03
1.268,-0.32,0.12,2.24,2.27
1.278,0.25,1.14,1.45,1.87
1.288,0.57,0.67,0.10,0.89
1.298,1.12,0.58,-0.66,1.42
1.308,1.45,0.71,-0.67,1.75
1.318,1.58,0.54,-0.59,1.77
1.328,1.19,0.03,-0.83,1.45
1.338,0.74,0.71,-0.75,1.27
1.348,0.48,1.54,-0.42,1.66
1.358,0.56,1.51,-0.45,1.67
1.368,0.49,0.89,-0.21,1.04
1.378,0.08,-0.16,-0.37,0.41
1.388,-0.38,-0.68,-0.79,1.11
1.398,-0.72,0.47,-0.05,0.87
1.408,-0.56,1.47,-0.43,1.63
1.418,0.01,1.22,-1.15,1.68
1.428,0.52,0.87,-0.61,1.19
1.438,0.73,0.11,-0.42,0.85
1.448,0.39,-0.69,-0.57,0.98
1.458,-0.33,-1.45,-0.40,1.54
1.468,-0.89,-2.13,-1.05,2.54
1.478,-0.73,-2.45,-2.76,3.76
1.488,0.06,-2.37,-3.26,4.03
1.498,0.36,-1.02,0.57,1.22
1.508,-0.07,0.90,2.26,2.43
1.518,-0.45,0.55,-0.60,0.94
1.528,-1.25,0.22,-0.18,1.28
1.538,-1.06,-0.04,0.55,1.20
1.548,-1.00,-0.63,0.76,1.41
1.558,-1.55,-1.11,0.51,1.97
1.568,-1.74,-0.90,-0.60,2.05
1.578,-0.76,0.02,-1.55,1.73
1.588,1.32,0.44,-1.20,1.84
1.598,3.00,-0.32,-0.61,3.08
1.607,3.15,-0.52,0.45,3.23
1.618,2.52,0.02,1.92,3.16
1.627,1.02,0.49,2.36,2.62
1.637,-0.56,-0.08,1.07,1.21
1.648,-2.00,-0.52,0.37,2.10
1.658,-2.68,-0.37,-1.05,2.91
1.668,-1.55,0.24,-1.60,2.24
1.677,0.56,1.25,0.32,1.41
1.688,1.94,0.42,1.01,2.22
1.698,1.70,-1.32,-0.30,2.18
1.707,1.01,-0.07,-1.55,1.85
1.717,0.44,1.29,-1.89,2.33
1.727,-0.27,1.05,-2.24,2.49
1.737,-0.70,0.51,-2.09,2.26
1.747,0.39,0.40,-1.85,1.93
1.757,1.36,-0.14,-0.44,1.43
1.767,1.40,-0.90,0.36,1.70
1.777,0.84,-0.22,1.67,1.89
1.787,-0.22,-0.06,2.02,2.04
1.797,-1.12,-0.10,1.91,2.22
1.807,-2.14,0.12,1.98,2.92
1.817,-2.53,0.64,1.71,3.12
1.827,-1.92,0.63,1.01,2.26
1.837,-1.56,0.65,0.87,1.90
1.847,-0.38,0.72,0.71,1.08
1.857,1.59,0.96,1.07,2.14
1.867,3.26,1.26,1.97,4.01
1.877,3.70,0.69,2.21,4.36
1.887,2.56,0.17,1.52,2.98
1.897,0.27,-0.08,1.76,1.78
1.907,-1.61,-0.18,0.59,1.73
1.917,-2.08,0.83,-1.43,2.66
1.927,-1.36,1.99,-2.63,3.56
1.937,-0.83,2.05,-2.77,3.55
1.947,-0.64,0.93,-2.10,2.38
1.957,-0.33,-0.84,-1.81,2.02
1.967,-0.05,-2.29,-2.02,3.06
1.977,-0.09,-3.40,-1.72,3.81
1.987,0.10,-3.32,-1.59,3.68
1.998,0.26,-2.72,-1.79,3.26
2.007,-0.44,-2.25,-2.30,3.25
2.017,-1.38,-1.86,-1.53,2.77
2.027,-1.84,-1.64,-0.08,2.47
2.037,-2.16,-1.20,0.83,2.61
2.047,-1.86,-0.10,1.30,2.27
2.057,-0.92,0.91,1.52,2.00
2.067,0.18,1.12,1.21,1.66
2.077,1.18,0.70,0.62,1.51
2.087,1.95,0.96,1.09,2.43
2.097,1.78,0.98,1.93,2.80
2.107,1.08,0.52,2.21,2.51
2.117,0.85,0.59,2.34,2.56
2.127,0.29,0.34,2.60,2.64
2.137,0.03,-0.06,2.41,2.42
2.147,0.75,-0.13,2.36,2.48
2.157,1.45,-1.27,1.61,2.51
2.167,0.69,-2.08,-0.53,2.26
2.177,-0.27,-1.93,-0.91,2.15
2.187,-0.44,-2.10,-1.11,2.42
2.196,-0.52,-1.67,-1.87,2.56
2.207,-0.01,-0.98,-3.13,3.28
2.216,0.18,-0.83,-3.09,3.21
2.227,0.19,-0.85,-1.79,1.99
2.237,-0.09,-0.76,-0.34,0.83
2.247,0.01,-0.85,0.01,0.85
2.257,0.72,-0.30,-0.16,0.80
2.266,0.66,0.67,0.35,1.01
2.276,-0.22,1.00,1.21,1.59
2.286,-1.19,1.49,1.12,2.21
2.297,-0.87,1.42,0.74,1.82
2.306,-0.94,0.64,0.25,1.17
2.317,-0.27,0.85,-1.02,1.35
2.327,0.88,1.42,-1.46,2.22
2.336,0.79,1.25,0.29,1.51
2.346,0.25,1.46,1.67,2.23
2.356,0.16,0.78,1.46,1.66
2.366,0.44,0.30,0.78,0.94
2.376,0.75,-0.03,-0.57,0.94
2.386,0.41,-1.26,-1.11,1.73
2.396,0.05,-1.60,-0.48,1.67
2.406,0.32,0.04,-0.33,0.46
2.416,0.52,0.89,-0.78,1.29
2.426,0.63,0.81,-0.46,1.12
2.436,0.17,1.38,0.14,1.39
2.446,0.11,1.59,0.36,1.63
2.456,0.62,0.53,0.33,0.88
2.466,0.82,-1.10,0.22,1.39
2.476,1.31,-0.99,-0.21,1.66
2.486,1.41,-0.49,-0.66,1.63
2.496,0.36,-0.87,-0.02,0.94
2.506,-0.32,-0.84,0.95,1.31
2.516,-0.43,-0.02,1.46,1.52
2.526,-0.10,-0.52,1.48,1.57
2.536,0.36,-2.28,1.75,2.90
2.546,1.38,-2.17,1.17,2.83
2.556,0.54,1.57,-0.94,1.90
2.566,-1.71,4.35,-3.07,5.59
2.576,-2.08,2.66,-2.50,4.20
2.586,-0.97,0.17,-1.18,1.53
2.596,-0.63,-0.85,-0.14,1.07
2.606,-0.02,-0.98,0.18,0.99
2.616,0.83,-0.83,0.40,1.24
2.626,1.33,-0.65,0.11,1.49
2.636,0.82,-1.07,0.75,1.55
2.646,0.36,-1.22,0.34,1.32
2.656,-0.29,-0.57,-1.33,1.48
2.666,-0.60,0.47,-0.52,0.93
2.676,-0.16,0.46,0.37,0.61
2.686,0.49,0.55,1.02,1.26
2.696,0.88,1.07,1.29,1.89
2.706,-0.12,0.76,0.75,1.07
2.716,-0.30,0.93,0.16,0.99
2.726,-0.79,0.70,-0.20,1.08
2.736,-0.79,0.63,-0.14,1.02
2.746,-0.50,0.01,0.22,0.55
2.756,0.00,-0.25,0.03,0.25
2.766,0.65,-0.80,0.09,1.04
2.775,1.00,-0.67,0.49,1.30
2.786,1.21,-1.24,0.47,1.79
2.795,1.26,0.33,-0.44,1.37
2.805,0.34,1.73,-1.22,2.14
2.818,-0.54,2.12,-1.05,2.43
2.826,-1.01,1.73,-0.19,2.01
2.836,-0.39,0.69,0.40,0.89
2.845,0.66,0.65,1.19,1.51
2.855,1.27,0.73,1.08,1.82
2.865,1.41,0.62,0.18,1.56
2.875,1.51,-0.01,-0.21,1.52
2.885,1.46,0.02,-0.30,1.49
2.895,0.84,-0.04,-0.30,0.89
2.905,-0.02,-0.65,0.53,0.84
2.915,-0.62,-1.00,1.13,1.63
2.925,-0.41,-1.03,0.91,1.43
2.935,0.29,-0.84,0.14,0.90
2.945,0.29,-0.56,-0.86,1.07
2.955,-0.56,-0.13,-1.66,1.76
2.965,-1.02,0.37,-1.89,2.18
2.975,-0.42,0.93,-0.87,1.34
2.985,0.44,0.86,0.49,1.08
2.995,0.04,-0.13,1.06,1.07
3.005,0.28,-0.31,1.37,1.43
3.015,0.72,-0.06,1.26,1.45
3.025,0.38,0.36,0.26,0.58
3.035,-0.02,0.90,-0.44,1.00
3.045,0.24,1.06,-0.39,1.15
3.055,0.42,0.86,0.03,0.96
3.065,0.63,0.44,0.47,0.90
3.075,0.63,0.09,0.39,0.75
3.085,0.42,-0.09,0.14,0.45
3.095,0.60,-0.07,-0.08,0.61
3.105,0.57,0.19,-0.48,0.78
3.115,-0.00,0.22,-0.54,0.58
3.125,-0.80,-0.05,-0.11,0.81
3.135,-1.11,-0.39,0.29,1.21
3.145,-1.61,-1.96,0.25,2.55
3.155,0.02,-2.02,-0.90,2.21
3.165,0.82,0.26,3.61,3.71
3.175,-5.34,-1.14,4.68,7.19
3.185,3.93,0.97,-7.32,8.36
3.195,-0.16,0.19,2.35,2.37
3.205,0.17,0.00,-2.58,2.59
3.215,1.23,-0.16,-1.52,1.96
3.225,0.09,-0.52,0.04,0.53
3.235,-0.89,-0.54,-0.50,1.15
3.245,-1.37,-0.33,-0.44,1.48
3.255,-1.28,-0.80,0.45,1.58
3.265,-0.69,-1.01,-1.04,1.60
3.275,-0.40,-0.62,-0.68,1.00
3.285,-0.12,-0.22,0.50,0.56
3.295,0.21,0.29,1.01,1.07
3.305,0.19,0.81,1.45,1.67
3.316,0.47,1.16,1.48,1.94
3.325,0.57,1.26,1.30,1.90
3.335,0.36,1.15,0.43,1.28
3.345,0.16,0.71,-0.59,0.94
3.355,-0.21,-0.20,-0.37,0.46
3.365,-0.10,-0.52,0.45,0.70
3.375,-1.26,-0.95,0.99,1.86
3.385,-0.81,1.01,0.06,1.30
3.394,0.79,2.21,-0.92,2.52
3.405,0.26,1.85,2.04,2.77
3.415,0.11,0.85,2.90,3.02
3.424,0.24,-0.19,2.05,2.07
3.434,0.40,-2.02,0.29,2.08
3.445,1.24,-3.19,-1.28,3.66
3.454,1.21,-0.93,-0.31,1.56
3.465,1.03,-0.77,-0.35,1.34
3.475,0.50,-0.58,-1.05,1.30
3.484,-0.03,-0.26,-1.68,1.70
3.494,-0.24,-0.02,-1.74,1.75
3.504,4.09,0.62,-3.02,5.12
3.514,4.07,-0.34,-5.64,6.96
3.524,-0.80,-0.46,-1.73,1.96
3.534,-0.82,0.84,-0.01,1.17
3.544,-2.32,0.46,1.31,2.70
3.554,-2.96,1.14,2.98,4.35
3.564,-2.89,0.88,3.02,4.28
3.574,-0.78,-0.14,2.40,2.52
3.584,0.16,-0.29,1.51,1.55
3.594,-0.26,-0.07,0.96,1.00
3.604,-0.12,0.00,0.53,0.55
3.614,0.08,0.30,0.50,0.59
3.624,0.05,0.39,0.70,0.80
3.634,0.79,-0.93,0.49,1.31
3.644,1.61,-2.03,-1.33,2.91
3.654,1.37,-2.08,-4.52,5.17
3.664,0.42,-1.78,-6.76,7.00
3.674,-0.13,-1.34,-5.27,5.44
3.684,-0.44,-1.03,-3.46,3.64
3.694,-0.84,-0.92,-1.53,1.97
3.704,-1.86,-1.01,0.78,2.26
3.714,-1.97,-0.87,1.96,2.92
3.724,-1.37,-1.56,2.40,3.17
3.734,0.23,-1.65,2.29,2.83
3.744,1.33,-0.97,2.60,3.08
3.754,1.14,0.08,2.06,2.35
3.764,0.50,0.45,2.06,2.16
3.774,0.34,-0.41,1.98,2.05
3.784,0.12,-1.31,1.81,2.24
3.794,0.03,-2.27,1.62,2.79
3.804,-0.22,-2.91,0.51,2.96
3.814,-0.03,-0.84,0.08,0.85
3.824,0.64,1.09,0.16,1.27
3.834,1.59,-0.76,-0.03,1.76
3.844,1.96,0.36,0.60,2.08
3.854,2.15,0.84,-0.10,2.31
3.864,2.09,-0.51,-0.73,2.27
3.874,1.69,-1.10,-0.40,2.05
3.884,0.53,-1.31,-0.56,1.53
3.894,-0.65,-1.13,-2.23,2.59
3.904,-1.29,0.10,-3.18,3.43
3.914,-2.26,1.10,-3.42,4.24
3.924,-2.09,1.80,-2.13,3.49
3.934,-0.78,2.17,-1.20,2.60
3.944,0.11,0.83,-0.92,1.25
3.954,0.30,-0.12,-0.26,0.42
3.964,-0.06,-0.94,0.13,0.95
3.974,-0.21,-2.52,0.35,2.55
3.984,-0.99,-0.56,-0.06,1.14
3.994,-1.51,1.99,-0.65,2.58
4.004,-0.77,2.68,0.00,2.79
4.014,0.17,2.75,1.12,2.98
4.024,0.65,2.80,0.93,3.02
4.034,0.81,3.02,1.04,3.29
4.044,0.86,2.50,1.00,2.82
4.054,0.90,1.11,0.86,1.67
4.064,0.05,1.12,0.47,1.21
4.073,-0.09,0.70,0.15,0.72
4.084,-0.14,-0.07,0.04,0.16
4.094,0.20,-0.52,0.34,0.65
4.103,0.59,-0.27,0.31,0.72
4.114,0.89,-0.10,-0.07,0.90
4.123,1.50,-0.10,-0.63,1.63
4.133,1.58,0.87,-1.22,2.18
4.143,0.97,1.96,-1.96,2.94
4.153,0.66,1.84,-2.01,2.81
4.163,0.64,1.24,-1.44,2.00
4.173,0.53,0.74,-0.91,1.29
4.183,0.18,0.69,-0.78,1.06
4.193,0.14,-0.07,-0.95,0.96
4.203,0.14,-1.56,-1.23,1.99
4.213,-0.39,-0.67,-0.39,0.86
4.223,-1.00,0.27,-0.00,1.03
4.233,-0.82,0.26,-0.21,0.88
4.243,0.61,-0.09,-0.06,0.62
4.253,1.48,0.16,0.24,1.51
4.263,1.50,-0.07,0.38,1.55
4.273,0.96,0.04,0.37,1.03
4.283,0.36,0.20,-0.08,0.42
4.293,0.18,0.35,-0.77,0.87
4.303,0.04,-0.07,-1.32,1.33
4.313,-0.25,-0.43,-1.43,1.51
4.323,0.18,-0.72,-0.67,1.00
4.333,0.31,-0.35,-0.40,0.61
4.343,0.71,0.06,-0.39,0.81
4.353,1.39,0.24,-0.62,1.54
4.363,1.32,0.80,-0.80,1.74
4.373,0.90,1.12,-0.75,1.63
4.383,0.62,0.59,-0.94,1.27
4.393,0.39,-0.25,-0.97,1.08
4.403,0.23,-0.64,-1.32,1.48
4.413,0.07,-1.27,-1.63,2.07
4.423,0.42,-1.00,-1.04,1.50
4.433,0.38,-0.93,-1.15,1.53
4.443,0.68,-0.85,-1.08,1.53
4.453,1.10,-0.21,-0.55,1.25
4.463,0.84,0.54,-0.36,1.07
4.473,0.40,0.88,-0.24,1.00
4.483,0.17,0.71,0.00,0.73
4.493,0.28,0.01,0.26,0.38
4.503,0.46,-0.85,-0.06,0.97
4.513,0.54,-1.63,-0.25,1.73
4.523,1.09,-2.20,-0.48,2.50
4.533,1.55,-1.46,-1.23,2.46
4.543,1.83,-2.37,-1.48,3.34
4.553,1.83,-1.52,-1.48,2.80
4.563,1.56,-1.03,-2.09,2.80
4.573,1.14,-0.85,-2.27,2.68
4.583,0.97,-0.87,-2.28,2.63
4.593,1.23,-1.93,-2.09,3.10
4.603,1.85,-3.61,-1.61,4.36
4.613,2.40,-3.91,-1.35,4.78
4.623,2.31,-2.67,-1.15,3.71
4.633,2.16,-1.68,-1.09,2.94
4.643,1.93,-0.56,-0.89,2.19
4.653,1.27,0.24,-1.34,1.86
4.663,0.85,-0.53,-1.53,1.83
4.673,0.95,-1.18,-1.30,1.99
4.683,0.99,-1.20,-1.23,1.98
4.693,0.93,-0.67,-1.42,1.83
4.703,1.22,0.77,-1.35,1.97
4.713,1.62,1.90,-1.35,2.84
4.723,1.67,1.66,-1.67,2.88
4.733,1.82,0.94,-1.48,2.53
4.743,1.94,0.53,-1.35,2.42
4.753,1.72,0.21,-1.65,2.39
4.763,1.56,-0.02,-1.70,2.31
4.772,1.71,0.66,-1.67,2.48
4.783,1.89,0.73,-1.94,2.81
4.792,2.08,0.34,-1.91,2.85
4.803,2.37,0.85,-1.67,3.02
4.813,1.89,3.99,-1.59,4.70
4.823,1.39,4.90,-1.48,5.30
4.833,1.19,4.21,-1.55,4.64
4.842,0.59,4.53,-1.64,4.86
4.852,0.09,4.97,-1.13,5.09
4.863,-0.37,5.18,-0.49,5.21
4.873,-0.68,4.64,-0.10,4.69
4.882,-0.51,2.98,-0.08,3.02
4.893,-0.48,1.54,-0.04,1.61
4.903,-0.48,1.06,-0.03,1.17
4.912,-0.47,0.45,-0.26,0.70
4.922,-0.33,-0.51,-0.51,0.79
4.932,-0.03,-0.53,-0.33,0.62
4.942,0.39,0.32,0.06,0.51
4.953,0.46,1.27,0.19,1.37
4.962,0.44,2.02,0.26,2.08
4.972,0.44,2.43,0.69,2.56
4.982,0.31,2.37,0.87,2.55
4.992,-0.11,1.93,0.70,2.06
5.002,-0.98,1.25,1.02,1.89
5.012,-1.82,0.70,1.16,2.27
5.022,-2.33,0.11,0.64,2.42
5.032,-2.59,-0.09,0.05,2.59
5.042,-2.65,0.18,-0.45,2.69
5.052,-2.52,0.09,-0.76,2.63
5.062,-2.21,-0.33,-0.87,2.40
5.072,-1.74,-1.35,-0.93,2.39
5.082,-1.32,-2.70,-1.10,3.20
5.092,-0.91,-4.47,-1.60,4.84
5.102,-0.22,-4.94,-0.85,5.02
5.112,0.20,-3.98,-0.79,4.06
5.122,0.38,-3.48,-1.28,3.73
5.132,0.47,-2.87,-1.30,3.18
5.142,0.47,-2.04,-1.07,2.35
5.152,0.49,-1.17,-0.49,1.36
5.162,0.27,-0.41,0.18,0.53
5.172,-0.31,0.11,0.68,0.75
5.182,-0.95,0.50,0.86,1.38
5.192,-1.78,0.64,0.88,2.08
5.202,-2.40,0.57,0.44,2.51
5.212,-2.61,0.36,-0.06,2.63
5.222,-2.59,-0.23,-0.28,2.62
5.232,-2.42,-0.82,-0.32,2.57
5.242,-2.04,-1.10,-0.18,2.32
5.252,-1.54,-1.00,-0.32,1.86
5.262,-0.97,-0.66,-0.82,1.44
5.272,-0.48,-0.44,-1.48,1.62
5.282,-0.00,-0.46,-2.17,2.22
5.292,0.45,-0.71,-2.70,2.82
5.302,0.85,-1.09,-3.08,3.37
5.312,1.03,-1.37,-3.18,3.61
5.322,1.05,-1.61,-3.02,3.58
5.332,1.24,-1.43,-2.73,3.32
5.342,1.61,-0.56,-2.36,2.91
5.352,1.90,0.73,-1.97,2.83
5.362,2.06,2.17,-1.80,3.49
5.372,2.45,3.20,-1.93,4.46
5.382,2.96,3.13,-2.42,4.93
5.392,3.20,2.68,-3.08,5.19
5.402,2.98,2.26,-3.45,5.08
5.412,2.54,1.96,-3.66,4.87
5.421,2.10,1.88,-3.80,4.73
5.432,1.86,2.07,-3.70,4.63
5.441,1.90,2.09,-3.48,4.48
5.452,1.64,1.91,-2.95,3.88
5.462,1.17,2.10,-2.02,3.14
5.472,1.10,2.78,-0.95,3.14
5.482,1.19,3.24,-0.34,3.47
5.491,1.23,2.84,-0.27,3.11
5.501,0.71,2.02,-0.64,2.23
5.511,0.01,0.95,-1.29,1.60
5.522,-0.65,-0.38,-1.48,1.66
5.531,-1.46,-1.91,-0.91,2.57
5.541,-2.08,-3.19,0.28,3.81
5.551,-2.47,-3.99,1.26,4.86
5.561,-2.73,-4.43,2.20,5.65
5.571,-2.81,-4.49,2.98,6.08
5.581,-2.95,-3.61,3.71,5.96
5.591,-3.07,-1.90,3.81,5.25
5.601,-3.29,0.11,3.15,4.55
5.612,-3.51,1.96,2.29,4.62
5.621,-3.21,3.62,1.86,5.18
5.631,-2.24,5.00,2.34,5.96
5.641,-0.60,6.24,2.88,6.90
5.651,1.56,7.12,3.16,7.95
5.661,2.83,6.87,3.41,8.18
5.671,3.53,4.99,3.17,6.88
5.681,3.96,1.98,2.48,5.08
5.691,3.97,-1.52,1.83,4.63
5.701,4.00,-5.51,0.53,6.83
5.711,3.44,-6.27,0.32,7.15
5.721,3.21,-5.51,-1.16,6.49
5.731,3.19,-5.50,-1.34,6.50
5.741,2.95,-5.20,-0.89,6.04
5.751,2.30,-4.55,-0.69,5.15
5.761,1.80,-3.94,-0.38,4.35
5.771,1.42,-3.77,-0.20,4.03
5.781,1.08,-3.53,0.07,3.69
5.791,0.66,-2.87,0.35,2.96
5.801,0.12,-1.88,0.67,2.00
5.811,-0.46,-0.79,0.96,1.33
5.821,-0.85,0.06,1.11,1.40
5.831,-0.85,0.37,1.01,1.37
5.841,-0.57,0.01,0.78,0.97
5.851,-0.06,-0.47,0.58,0.75
5.861,0.75,-1.01,0.50,1.35
5.871,1.57,-1.61,0.33,2.28
5.881,2.26,-1.96,0.19,3.00
5.891,2.88,-2.04,0.04,3.53
5.901,3.15,-1.26,-0.19,3.40
5.911,3.07,0.51,-0.38,3.13
5.921,3.21,2.08,-0.69,3.89
5.931,3.06,3.74,-1.30,5.01
5.941,3.08,5.18,-2.65,6.58
5.951,2.74,5.59,-3.83,7.32
5.961,1.41,4.79,-4.68,6.85
5.971,0.21,3.88,-4.63,6.04
5.981,0.19,2.55,-4.10,4.83
5.991,1.00,1.11,-3.39,3.71
6.001,1.76,0.53,-2.51,3.11
6.011,1.91,0.37,-1.71,2.59
6.021,1.56,0.65,-0.81,1.87
6.031,0.59,2.14,-0.08,2.22
6.041,-0.77,6.11,0.54,6.18
6.051,-1.88,10.22,0.63,10.41
6.061,-2.34,13.45,-0.93,13.68
6.071,-2.68,10.75,-0.45,11.09
6.081,-3.64,5.29,2.12,6.76
6.091,-3.92,0.49,4.07,5.67
6.101,-3.02,-2.43,5.41,6.66
6.111,-1.97,-3.39,5.85,7.04
6.120,-1.47,-2.71,5.00,5.87
6.130,-0.96,-1.77,3.20,3.78
6.141,-0.23,-1.26,1.59,2.04
6.151,0.37,-1.03,0.38,1.16
6.161,0.03,-1.04,-0.33,1.09
6.171,-1.68,-1.04,-0.28,2.00
6.181,-3.97,-1.00,-0.02,4.09
6.191,-5.00,-0.84,0.10,5.07
6.201,-4.46,-0.83,0.28,4.54
6.210,-3.29,-0.94,0.40,3.45
6.221,-2.34,-1.29,0.58,2.73
6.230,-1.75,-1.93,0.80,2.73
6.240,-1.39,-2.79,0.53,3.16
6.250,-1.00,-3.77,-0.21,3.91
6.260,-0.63,-4.87,-0.89,4.99
6.270,-0.63,-5.85,-1.20,6.01
6.280,-0.94,-6.16,-1.59,6.43
6.290,-1.43,-5.58,-1.85,6.05
6.300,-1.94,-4.21,-1.71,4.94
6.310,-2.24,-2.40,-1.21,3.50
6.320,-2.42,-0.64,-0.50,2.55
6.330,-2.28,0.88,0.13,2.44
6.340,-1.72,1.86,0.51,2.58
6.350,-1.24,2.15,0.56,2.55
6.360,-1.05,2.03,-0.02,2.29
6.370,-0.92,1.81,-0.74,2.16
6.380,-0.83,1.37,-1.25,2.03
6.390,-0.70,0.49,-1.63,1.84
6.400,-0.66,-0.54,-2.06,2.23
6.410,-0.32,-1.31,-2.71,3.03
6.420,0.24,-1.98,-3.44,3.98
6.430,0.89,-2.53,-3.98,4.80
6.440,1.43,-2.73,-4.08,5.11
6.450,1.96,-2.61,-3.94,5.11
6.460,2.72,-2.06,-3.41,4.82
6.470,3.40,-1.04,-2.61,4.41
6.480,3.90,0.16,-2.22,4.50
6.491,4.17,1.27,-1.98,4.79
6.500,4.10,2.19,-2.08,5.10
6.510,3.97,2.88,-2.77,5.64
6.520,3.69,3.53,-3.57,6.23
6.530,3.12,4.06,-3.87,6.42
6.540,2.86,3.72,-3.85,6.07
6.550,3.01,2.38,-3.67,5.31
6.560,3.41,1.12,-3.15,4.78
6.570,4.02,0.64,-2.44,4.75
6.580,3.96,0.70,-1.86,4.43
6.590,3.56,0.92,-2.09,4.23
6.600,2.70,0.74,-2.58,3.80
6.610,1.28,0.31,-2.36,2.70
6.620,-0.18,-0.02,-1.30,1.31
6.630,-1.49,-0.27,-0.00,1.52
6.640,-2.69,-0.59,1.22,3.01
6.650,-4.00,-0.94,2.39,4.75
6.660,-5.07,-1.04,3.22,6.09
6.670,-5.79,-0.19,3.70,6.87
6.680,-6.38,1.89,3.91,7.72
6.690,-6.79,5.29,3.65,9.35
6.700,-5.89,8.30,3.35,10.71
6.710,-3.55,9.53,3.69,10.82
6.721,-0.74,9.63,4.12,10.50
6.730,1.61,8.90,4.74,10.21
6.740,3.09,7.25,5.40,9.55
6.749,3.82,5.03,5.34,8.27
6.760,4.26,2.39,4.47,6.62
6.769,4.63,-1.52,2.90,5.66
6.780,4.40,-6.00,0.73,7.48
6.790,3.47,-5.77,-0.66,6.77
6.800,3.63,-5.53,-2.80,7.18
6.810,3.45,-6.71,-2.92,8.09
6.819,2.71,-6.76,-2.58,7.72
6.829,1.87,-6.25,-2.39,6.94
6.839,1.10,-5.88,-1.78,6.25
6.850,0.40,-6.30,-1.00,6.39
6.859,-0.37,-6.50,-0.30,6.52
6.869,-0.94,-6.15,0.37,6.23
6.879,-1.18,-5.33,1.00,5.55
6.890,-1.04,-4.35,1.45,4.70
6.899,-0.76,-3.35,1.85,3.90
6.909,-0.63,-2.70,1.91,3.37
6.919,-0.79,-2.08,1.67,2.78
6.929,-1.01,-1.14,1.58,2.20
6.939,-0.79,-0.44,1.82,2.03
6.949,-0.22,-0.37,1.98,2.03
6.959,0.20,-0.43,1.66,1.73
6.969,0.16,-0.22,1.02,1.05
6.979,0.10,0.53,0.34,0.64
6.989,0.46,1.75,-0.63,1.92
6.999,1.20,3.09,-2.07,3.91
7.009,2.28,4.88,-3.37,6.36
7.019,3.41,6.62,-4.24,8.57
7.029,3.94,5.99,-4.62,8.53
7.039,2.67,4.15,-5.17,7.15
7.049,1.15,2.89,-5.27,6.12
7.059,0.74,1.66,-4.73,5.07
7.069,1.29,0.25,-3.94,4.15
7.079,1.61,-0.15,-2.57,3.04
7.089,0.91,0.04,-1.19,1.50
7.099,-0.63,1.55,0.17,1.69
7.109,-2.72,6.48,1.12,7.11
7.119,-4.19,13.27,1.01,13.95
7.130,-3.72,17.64,-0.48,18.03
7.139,-3.77,13.86,1.30,14.42
7.149,-4.71,6.15,4.00,8.72
7.159,-4.48,-0.05,4.98,6.70
7.169,-2.97,-3.30,5.86,7.35
7.179,-1.29,-5.03,5.89,7.85
7.189,-0.41,-4.95,5.11,7.12
7.199,0.41,-3.40,3.58,4.95
7.209,1.45,-1.99,1.88,3.10
7.219,1.71,-1.03,0.48,2.05
7.229,1.05,-0.58,-0.72,1.40
7.239,-0.74,-0.29,-1.04,1.31
7.249,-3.40,-0.01,-0.95,3.53
7.259,-5.36,0.20,-0.70,5.41
7.269,-5.86,-0.17,-0.18,5.86
7.279,-5.28,-0.71,0.29,5.34
7.289,-4.07,-1.20,0.37,4.26
7.299,-2.83,-1.90,0.62,3.47
7.309,-2.19,-2.95,0.97,3.80
7.319,-1.85,-4.28,0.63,4.71
7.329,-1.50,-5.53,-0.19,5.74
7.339,-1.14,-6.28,-0.74,6.42
7.349,-1.03,-6.12,-0.96,6.28
7.359,-1.18,-5.18,-1.16,5.44
7.369,-1.56,-3.75,-1.25,4.25
7.379,-1.90,-2.07,-1.00,2.99
7.388,-2.15,-0.57,-0.35,2.25
7.399,-2.07,0.71,0.23,2.20
7.408,-1.81,1.16,0.31,2.18
7.419,-2.00,1.13,-0.12,2.30
7.429,-1.68,1.55,-0.73,2.40
7.439,-1.30,1.45,-1.08,2.23
7.448,-1.25,0.78,-1.35,2.00
7.459,-1.19,-0.01,-1.55,1.95
7.469,-0.76,-0.70,-1.82,2.10
7.478,-0.04,-1.11,-2.57,2.80
7.488,0.53,-1.37,-3.54,3.84
7.498,1.14,-1.51,-4.09,4.51
7.508,1.84,-1.50,-4.10,4.74
7.519,2.34,-1.56,-3.85,4.77
7.528,2.69,-1.38,-3.49,4.62
7.538,2.82,-0.65,-2.79,4.02
7.548,2.86,0.33,-2.39,3.74
7.558,3.24,1.23,-2.30,4.16
7.568,3.39,2.08,-2.25,4.57
7.578,3.61,2.58,-2.67,5.18
7.588,3.83,2.83,-3.43,5.87
7.598,3.75,3.14,-3.82,6.21
7.608,3.29,3.18,-3.46,5.74
7.618,3.39,2.40,-3.24,5.27
7.628,3.57,1.26,-3.20,4.95
7.638,3.78,0.88,-2.86,4.82
7.648,3.90,0.97,-1.97,4.47
7.658,3.33,0.70,-1.67,3.79
7.668,2.56,0.23,-1.95,3.22
7.678,1.48,-0.43,-2.12,2.62
7.688,0.11,-1.00,-1.30,1.64
7.698,-1.13,-1.38,-0.11,1.78
7.708,-2.21,-1.56,1.09,2.92
7.718,-3.26,-1.68,2.21,4.28
7.728,-4.39,-1.59,3.35,5.74
7.738,-5.53,-0.81,3.76,6.73
7.748,-6.57,1.44,3.53,7.60
7.758,-7.48,4.89,3.09,9.45
7.768,-6.99,8.33,2.58,11.18
7.778,-4.72,10.36,2.93,11.75
7.789,-1.58,10.98,3.45,11.62
7.799,1.05,10.52,4.20,11.37
7.808,2.60,9.01,5.08,10.66
7.818,3.57,6.48,5.52,9.23
7.828,4.54,3.58,5.04,7.67
7.838,5.35,0.34,4.22,6.82
7.848,5.26,-3.88,2.25,6.91
7.858,4.87,-8.50,0.23,9.80
7.868,3.79,-6.84,-0.71,7.85
7.878,3.63,-6.17,-2.61,7.62
7.888,3.28,-6.75,-2.39,7.88
7.898,2.99,-7.34,-2.12,8.21
7.908,1.89,-6.71,-1.72,7.18
7.918,0.66,-6.52,-1.28,6.67
7.928,-0.30,-7.00,-0.65,7.03
7.938,-1.16,-6.74,0.15,6.84
7.948,-1.58,-6.08,0.78,6.34
7.958,-1.70,-5.13,1.44,5.60
7.968,-1.68,-3.97,1.86,4.70
7.978,-1.62,-2.93,1.86,3.83
7.988,-1.57,-2.04,1.65,3.06
7.998,-1.48,-1.13,1.43,2.35
8.008,-1.13,-0.27,1.41,1.83
8.018,-0.30,0.15,1.70,1.74
8.028,0.66,0.00,1.81,1.92
8.038,1.10,0.22,1.29,1.71
8.048,1.05,1.71,0.59,2.09
8.058,1.13,3.86,-0.34,4.03
8.067,1.85,4.62,-2.11,5.41
8.078,2.95,5.86,-3.53,7.45
8.087,4.12,7.35,-4.48,9.54
8.098,4.73,6.63,-4.99,9.55
8.108,3.18,4.53,-5.31,7.67
8.118,1.38,2.63,-5.44,6.20
8.128,0.53,0.85,-5.24,5.33
8.137,0.79,-0.42,-4.52,4.61
8.148,1.35,-0.77,-2.86,3.25
8.157,0.91,-0.56,-1.03,1.49
8.167,-0.35,0.76,0.60,1.03
8.177,-1.99,4.63,1.55,5.27
8.188,-3.54,10.97,1.14,11.58
8.198,-3.09,15.29,0.22,15.60
8.208,-3.47,13.11,2.73,13.83
8.218,-4.68,7.48,4.77,10.03
8.228,-4.52,2.06,5.21,7.20
8.237,-3.41,-0.99,5.81,6.81
8.248,-2.18,-2.56,5.86,6.76
8.257,-0.88,-2.86,5.02,5.85
8.267,0.51,-1.92,3.43,3.96
8.277,1.47,-0.81,1.77,2.44
8.287,1.12,-0.34,0.29,1.20
8.297,-0.43,-0.20,-0.66,0.81
8.307,-2.82,-0.33,-1.29,3.12
8.317,-4.92,-0.56,-1.67,5.22
8.327,-5.28,-1.18,-1.23,5.55
8.337,-4.70,-2.36,-0.40,5.27
8.347,-3.38,-2.97,-0.17,4.50
8.357,-2.32,-3.17,0.19,3.93
8.367,-1.76,-3.64,0.40,4.06
8.377,-1.62,-4.27,0.52,4.60
8.387,-1.60,-4.79,0.15,5.06
8.397,-1.54,-5.41,-0.46,5.64
8.407,-1.53,-5.93,-0.69,6.16
8.417,-1.76,-5.77,-0.62,6.07
8.427,-1.99,-4.76,-0.65,5.20
8.437,-2.17,-3.08,-0.48,3.80
8.447,-2.23,-1.26,-0.23,2.57
8.457,-2.13,0.17,-0.04,2.14
8.467,-1.86,0.91,-0.12,2.07
8.477,-1.76,0.70,-0.15,1.90
8.487,-1.92,0.74,-0.35,2.09
8.497,-1.37,1.36,-0.62,2.03
8.507,-0.86,1.67,-0.88,2.08
8.517,-0.67,1.57,-1.49,2.26
8.527,-0.41,0.95,-2.02,2.27
8.537,0.02,0.16,-2.48,2.48
8.547,0.47,-0.54,-3.23,3.31
8.557,0.88,-1.00,-3.87,4.09
8.567,1.48,-1.38,-4.16,4.63
8.577,2.18,-1.83,-4.08,4.98
8.587,2.61,-1.96,-3.48,4.77
8.597,2.82,-1.47,-2.70,4.17
8.607,3.02,-0.40,-2.11,3.70
8.617,3.39,0.83,-1.77,3.91
8.627,3.48,1.79,-1.84,4.32
8.637,3.32,2.27,-2.65,4.82
8.647,3.08,2.45,-3.54,5.29
8.657,2.71,2.74,-3.98,5.54
8.667,2.11,3.02,-3.78,5.28
8.677,1.88,2.64,-3.49,4.76
8.687,1.97,1.67,-3.08,4.02
8.697,2.27,1.06,-2.44,3.49
8.707,2.86,1.04,-1.55,3.42
8.717,2.90,0.97,-1.05,3.24
8.727,2.58,0.53,-1.19,2.89
8.737,1.79,-0.22,-1.52,2.36
8.746,0.60,-0.92,-1.26,1.67
8.756,-0.39,-1.28,-0.30,1.37
8.767,-1.47,-1.66,0.79,2.35
8.777,-2.54,-2.04,1.83,3.74
8.786,-3.41,-2.38,3.05,5.16
8.796,-4.21,-2.36,4.36,6.50
8.807,-4.91,-0.87,4.51,6.73
8.816,-5.96,2.25,3.98,7.51
8.826,-6.66,5.98,3.13,9.48
8.836,-5.88,8.87,2.90,11.03
8.846,-3.42,10.47,3.59,11.59
8.856,-0.37,10.80,4.11,11.56
8.866,1.78,9.79,4.77,11.03
8.876,3.05,7.62,5.30,9.77
8.886,4.12,4.84,4.98,8.08
8.896,5.00,2.06,4.28,6.90
8.906,4.91,-1.26,2.93,5.85
8.916,4.65,-6.08,0.64,7.68
8.926,3.77,-6.56,-0.45,7.58
8.936,3.49,-5.08,-2.16,6.53
8.946,3.34,-5.84,-2.64,7.23
8.956,3.14,-6.81,-2.47,7.89
8.966,2.49,-6.69,-1.98,7.41
8.976,1.38,-5.97,-1.47,6.30
8.986,0.28,-6.20,-0.91,6.27
8.996,-0.66,-6.39,-0.16,6.42
9.006,-1.19,-6.14,0.28,6.26
9.016,-1.43,-5.34,0.82,5.59
9.026,-1.49,-4.14,1.40,4.62
9.036,-1.42,-2.88,1.61,3.59
9.046,-1.16,-1.86,1.62,2.72
9.056,-0.96,-1.03,1.50,2.06
9.066,-0.76,-0.35,1.44,1.67
9.076,-0.33,-0.04,1.56,1.59
9.086,0.23,-0.11,1.66,1.68
9.096,0.68,-0.35,1.34,1.55
9.106,0.89,-0.22,0.78,1.21
9.116,0.91,0.71,0.37,1.21
9.126,1.30,1.84,-0.38,2.29
9.136,2.16,3.05,-1.51,4.03
9.146,3.10,5.31,-2.63,6.69
9.156,4.23,7.44,-3.77,9.35
9.166,4.92,6.42,-4.63,9.32
9.176,3.51,4.11,-5.10,7.43
9.186,1.57,2.36,-5.17,5.90
9.196,0.52,0.93,-4.81,4.93
9.206,0.47,-0.44,-3.93,3.98
9.216,0.63,-0.76,-2.21,2.42
9.226,-0.00,-0.18,-0.84,0.86
9.236,-1.31,2.20,-0.02,2.56
9.246,-2.64,7.58,0.77,8.07
9.256,-3.29,13.83,0.92,14.25
9.266,-2.46,16.26,0.19,16.44
9.276,-2.93,11.81,2.27,12.37
9.286,-4.03,5.19,4.18,7.78
9.296,-3.93,-0.24,4.74,6.16
9.306,-2.61,-3.23,5.22,6.67
9.316,-1.01,-4.68,5.14,7.02
9.326,-0.10,-4.55,4.53,6.42
9.336,0.62,-3.06,2.99,4.33
9.346,1.33,-1.77,1.41,2.63
9.355,1.51,-1.10,0.11,1.87
9.365,0.87,-0.86,-1.00,1.58
9.375,-1.08,-0.67,-1.10,1.68
9.386,-3.73,-0.45,-1.03,3.90
9.396,-5.62,-0.35,-0.94,5.71
9.405,-5.99,-0.90,-0.37,6.07
9.416,-5.11,-1.30,0.24,5.28
9.426,-3.66,-1.58,0.77,4.06
9.436,-2.61,-2.51,0.97,3.74
9.445,-1.98,-3.48,1.17,4.17
9.456,-1.63,-4.28,1.05,4.70
9.465,-1.14,-5.22,0.22,5.35
9.475,-0.75,-5.83,-0.41,5.89
9.485,-0.69,-5.59,-0.76,5.68
9.495,-0.83,-4.37,-1.12,4.58
9.505,-1.16,-2.80,-1.37,3.32
9.515,-1.47,-1.34,-1.27,2.36
9.525,-1.61,-0.03,-0.75,1.77
9.535,-1.39,1.00,-0.12,1.72
9.545,-1.43,1.22,0.31,1.90
9.555,-1.89,1.57,0.15,2.46
9.565,-1.79,2.20,-0.32,2.85
9.575,-1.55,2.07,-0.53,2.64
9.585,-1.51,1.21,-0.89,2.13
9.595,-1.44,0.11,-1.22,1.89
9.605,-1.06,-0.79,-1.64,2.11
9.615,-0.55,-1.37,-2.38,2.80
9.625,-0.08,-1.65,-3.35,3.74
9.635,0.49,-1.68,-4.09,4.45
9.645,1.19,-1.67,-4.43,4.88
9.655,1.83,-1.52,-4.47,5.07
9.665,2.37,-1.16,-4.16,4.93
9.675,2.70,-0.45,-3.71,4.61
9.685,3.54,0.47,-3.30,4.86
9.695,4.38,1.12,-2.85,5.35
9.705,4.62,1.62,-2.82,5.65
9.715,4.49,2.13,-3.28,5.95
9.725,4.27,2.57,-3.69,6.20
9.735,3.56,2.77,-3.45,5.68
9.745,3.16,2.01,-3.08,4.85
9.755,3.15,0.71,-2.62,4.16
9.765,3.33,0.19,-2.24,4.01
9.775,3.58,0.54,-1.60,3.96
9.785,2.97,0.80,-1.19,3.30
9.795,2.17,0.44,-1.40,2.62
9.805,1.30,-0.28,-1.43,1.96
9.815,0.05,-0.64,-0.58,0.87
9.825,-1.23,-0.63,0.59,1.50
9.835,-2.29,-0.45,1.52,2.79
9.845,-3.35,-0.52,2.19,4.03
9.855,-4.81,-0.85,3.27,5.88
9.865,-6.26,-0.61,3.91,7.41
9.875,-7.43,1.09,4.19,8.59
9.885,-7.94,4.13,4.46,10.00
9.895,-6.88,7.46,4.03,10.92
9.905,-4.65,9.34,3.75,11.08
9.915,-2.42,9.96,4.19,11.07
9.926,-0.11,9.86,4.66,10.91
9.935,1.59,8.78,5.26,10.36
9.945,2.99,6.64,5.52,9.14
9.954,4.44,4.10,4.89,7.78
9.965,5.33,1.32,3.75,6.65
9.974,5.52,-3.29,1.43,6.59
9.985,5.01,-6.93,0.09,8.56
9.995,4.03,-5.19,-1.28,6.70
10.005,3.94,-6.12,-2.94,7.85
10.015,3.77,-7.08,-2.48,8.40
10.025,3.35,-7.69,-2.25,8.68
10.035,2.31,-7.16,-1.62,7.69
10.045,1.21,-6.75,-1.09,6.95
10.055,0.30,-6.88,-0.36,6.90
10.064,-0.41,-6.71,0.40,6.74
10.075,-0.90,-6.06,0.82,6.18
10.084,-1.16,-5.07,1.27,5.36
10.094,-1.29,-3.88,1.49,4.36
10.104,-1.40,-2.77,1.43,3.41
10.114,-1.44,-1.85,1.31,2.69
10.124,-1.51,-1.01,1.13,2.14
10.134,-1.40,-0.32,1.26,1.92
10.145,-0.98,-0.16,1.60,1.88
10.154,-0.43,-0.38,1.87,1.95
10.164,0.03,-0.68,1.52,1.67
10.174,0.26,-0.23,0.89,0.96
10.184,0.58,1.04,0.28,1.22
10.194,1.38,2.31,-0.67,2.77
10.204,2.57,4.63,-1.72,5.57
10.214,4.17,7.38,-3.14,9.04
10.224,5.45,8.42,-4.57,11.02
10.234,5.34,6.19,-5.23,9.70
10.244,3.46,3.74,-5.44,7.45
10.254,1.72,2.03,-5.06,5.72
10.264,0.98,0.45,-4.45,4.58
10.274,0.86,-0.31,-3.36,3.48
10.284,0.56,-0.07,-1.84,1.93
10.294,-0.46,1.11,-0.35,1.25
10.304,-2.25,4.94,0.70,5.47
10.314,-3.98,11.60,0.95,12.30
10.325,-3.64,17.24,-0.13,17.62
10.335,-2.80,15.07,0.66,15.34
10.344,-3.54,7.37,3.99,9.10
10.354,-3.51,0.48,4.91,6.05
10.364,-2.74,-3.52,5.12,6.79
10.374,-1.41,-5.34,5.12,7.54
10.384,-0.28,-5.54,4.67,7.25
10.394,0.63,-4.17,3.74,5.64
10.404,1.43,-2.44,1.98,3.45
10.414,1.70,-1.00,0.47,2.03
10.424,1.53,-0.39,-0.77,1.76
10.434,0.53,-0.22,-1.23,1.36
10.444,-2.13,0.07,-1.07,2.38
10.454,-5.14,0.34,-0.85,5.22
10.464,-6.76,0.55,-0.29,6.79
10.474,-6.68,-0.12,0.59,6.70
10.484,-5.39,-0.90,1.09,5.57
10.494,-3.81,-1.65,1.31,4.36
10.504,-2.73,-2.73,1.70,4.22
10.514,-2.25,-3.76,1.68,4.69
10.524,-1.68,-4.91,0.82,5.25
10.534,-1.13,-5.91,-0.13,6.02
10.544,-0.96,-6.14,-0.67,6.25
10.554,-0.98,-5.39,-1.11,5.59
10.564,-1.25,-4.03,-1.53,4.49
10.574,-1.65,-2.75,-1.59,3.58
10.584,-1.90,-1.73,-1.15,2.82
10.594,-1.71,-0.75,-0.36,1.90
10.604,-1.34,0.14,0.47,1.42
10.614,-1.25,0.91,0.84,1.76
10.624,-1.54,1.80,0.37,2.40
10.634,-1.45,2.32,-0.54,2.79
10.644,-1.06,1.94,-1.06,2.45
10.654,-0.86,0.91,-1.33,1.82
10.664,-0.67,-0.03,-1.56,1.70
10.674,-0.34,-0.62,-1.94,2.06
10.684,-0.05,-0.81,-2.66,2.78
10.694,0.20,-0.87,-3.58,3.68
10.704,0.49,-0.95,-4.04,4.17
10.714,0.86,-1.14,-3.82,4.08
10.724,1.16,-1.19,-3.38,3.77
10.733,1.54,-0.92,-3.18,3.65
10.743,1.88,-0.29,-3.07,3.61
10.753,2.38,0.62,-2.87,3.78
10.763,3.03,1.33,-2.68,4.26
10.773,3.55,1.64,-2.58,4.69
10.783,3.75,1.61,-2.84,4.97
10.793,3.81,1.42,-3.48,5.35
10.803,3.65,1.60,-4.01,5.65
10.813,3.14,2.08,-3.84,5.38
10.823,2.97,1.85,-3.66,5.07
10.834,3.22,0.72,-3.61,4.89
10.843,3.63,0.10,-3.17,4.82
10.853,4.08,0.45,-2.16,4.64
10.863,3.91,0.93,-1.46,4.27
10.873,3.32,0.84,-1.49,3.73
10.883,2.21,0.15,-1.59,2.73
10.893,0.80,-0.36,-0.96,1.30
10.903,-0.64,-0.66,0.20,0.94
10.913,-2.04,-0.69,1.41,2.57
10.923,-3.09,-0.81,2.41,4.00
10.933,-4.19,-0.97,3.52,5.56
10.943,-5.42,-0.51,4.12,6.82
10.953,-6.61,1.49,3.98,7.86
10.963,-7.55,4.90,3.71,9.74
10.973,-7.25,8.55,3.32,11.69
10.983,-5.29,10.48,3.70,12.31
10.993,-2.38,10.82,4.09,11.81
11.003,0.19,9.81,4.32,10.72
11.013,1.74,7.75,4.86,9.31
11.023,2.86,5.09,5.02,7.70
11.033,3.98,2.40,4.48,6.45
11.043,4.60,-0.21,3.71,5.92
11.053,4.62,-4.16,1.68,6.44
11.063,4.09,-6.85,0.39,7.99
11.073,3.63,-4.78,-1.00,6.08
11.083,4.10,-5.90,-2.60,7.64
11.093,3.72,-6.73,-2.28,8.02
11.103,3.23,-7.39,-2.40,8.41
11.113,2.42,-6.85,-1.81,7.48
11.123,1.35,-6.56,-1.30,6.82
11.133,0.34,-6.80,-0.73,6.85
11.143,-0.32,-6.78,-0.10,6.79
11.153,-0.73,-6.07,0.47,6.13
11.163,-1.01,-4.99,1.01,5.19
11.173,-1.29,-3.80,1.32,4.22
11.183,-1.60,-2.77,1.22,3.42
11.193,-1.96,-1.78,0.99,2.82
11.203,-2.23,-0.77,0.80,2.49
11.213,-2.19,-0.02,0.83,2.34
11.223,-1.77,0.13,1.14,2.11
11.233,-1.08,-0.28,1.35,1.75
11.243,-0.47,-0.96,1.12,1.55
11.253,-0.19,-0.98,0.68,1.21
11.263,-0.06,0.40,0.26,0.49
11.273,0.67,1.57,-0.49,1.78
11.283,2.00,3.08,-1.20,3.86
11.293,3.34,5.53,-2.01,6.77
11.303,4.65,6.69,-3.09,8.72
11.313,4.74,5.43,-3.79,8.14
11.323,3.41,3.91,-4.17,6.65
11.332,1.84,2.49,-4.41,5.38
11.343,1.30,1.22,-4.57,4.91
11.353,1.74,0.31,-4.47,4.81
11.363,2.21,0.24,-3.67,4.29
11.372,2.04,0.24,-2.46,3.21
11.382,1.31,0.25,-0.77,1.54
11.392,-0.18,1.45,1.09,1.83
11.403,-2.14,5.90,2.36,6.71
11.412,-3.95,12.70,1.88,13.43
11.423,-3.89,17.05,-0.93,17.51
11.433,-4.50,13.93,1.06,14.68
11.442,-5.04,6.23,4.35,9.12
11.453,-4.54,-0.34,5.15,6.88
11.462,-3.31,-3.40,5.92,7.59
11.472,-2.29,-4.41,5.98,7.78
11.482,-1.64,-3.75,5.04,6.49
11.492,-0.81,-2.32,3.26,4.09
11.502,0.08,-1.53,1.43,2.10
11.512,0.36,-1.18,-0.16,1.24
11.522,-0.11,-0.77,-1.01,1.27
11.532,-1.56,-0.25,-1.10,1.93
11.542,-3.47,-0.05,-0.74,3.54
11.552,-4.84,0.01,0.10,4.84
11.562,-4.86,0.02,0.93,4.95
11.572,-3.79,0.03,1.18,3.97
11.582,-2.57,-0.12,1.40,2.93
11.592,-1.97,-0.78,1.64,2.68
11.602,-1.82,-2.05,1.47,3.11
11.612,-1.94,-3.48,0.55,4.02
11.622,-1.92,-4.99,-0.40,5.36
11.632,-1.85,-6.02,-0.87,6.35
11.642,-1.85,-6.09,-1.21,6.48
11.652,-1.80,-5.26,-1.56,5.77
11.662,-1.89,-3.94,-1.63,4.67
11.672,-2.03,-2.56,-1.39,3.55
11.682,-2.09,-1.41,-0.90,2.68
11.692,-1.99,-0.65,-0.27,2.12
11.702,-1.65,-0.02,0.19,1.66
11.712,-1.30,0.33,0.24,1.36
11.722,-1.13,0.82,-0.30,1.43
11.732,-0.84,1.11,-1.00,1.71
11.742,-0.66,0.76,-1.43,1.75
11.752,-0.54,0.03,-1.64,1.72
11.762,-0.22,-0.70,-1.75,1.89
11.772,0.28,-0.83,-2.11,2.28
11.782,0.60,-0.63,-2.78,2.91
11.792,0.87,-0.39,-3.53,3.65
11.802,1.26,-0.29,-3.88,4.09
11.812,1.72,-0.26,-3.75,4.13
11.822,2.07,-0.31,-3.58,4.14
11.832,2.25,-0.32,-3.50,4.17
11.842,2.31,0.03,-3.39,4.10
11.852,2.45,0.39,-2.93,3.84
11.862,2.69,0.67,-2.41,3.67
11.872,2.92,1.05,-2.20,3.81
11.882,3.26,1.31,-2.56,4.35
11.892,3.60,1.27,-3.27,5.03
11.902,3.43,1.54,-3.48,5.12
11.911,2.89,1.85,-3.03,4.58
11.922,2.93,1.38,-2.63,4.17
11.932,3.38,0.57,-2.36,4.16
11.942,4.25,0.50,-1.83,4.66
11.952,4.38,1.24,-0.65,4.60
11.962,3.96,1.72,-0.09,4.31
11.972,3.40,1.54,-0.64,3.78
11.982,1.72,1.10,-1.11,2.32
11.992,-0.10,0.27,-0.78,0.83
12.002,-1.63,-0.53,0.27,1.73
12.012,-2.95,-0.73,1.52,3.39
12.021,-4.14,-0.93,2.35,4.85
12.031,-5.61,-0.92,3.48,6.66
12.041,-6.88,-0.51,4.18,8.06
12.052,-7.82,0.67,4.28,8.94
12.061,-8.57,3.40,3.87,10.00
12.071,-8.17,6.67,3.19,11.02
12.081,-6.06,8.82,3.03,11.12
12.091,-2.69,9.83,3.39,10.74
12.102,0.37,9.77,3.95,10.54
12.111,2.34,8.52,4.79,10.05
12.121,3.87,6.26,5.41,9.13
12.131,5.35,3.54,4.95,8.10
12.141,6.13,0.72,4.33,7.54
12.151,6.55,-3.76,2.74,8.03
12.161,6.05,-7.27,1.66,9.60
12.171,4.82,-5.53,-0.44,7.35
12.181,4.33,-6.08,-2.60,7.90
12.191,4.25,-6.95,-2.34,8.48
12.201,3.91,-7.33,-2.21,8.59
12.211,2.79,-6.27,-1.92,7.12
12.221,1.74,-5.72,-1.46,6.15
12.231,0.69,-5.54,-0.83,5.65
12.241,-0.09,-5.52,-0.54,5.55
12.251,-0.76,-5.01,-0.17,5.07
12.261,-1.07,-4.27,0.19,4.40
12.271,-1.14,-3.38,0.63,3.62
12.281,-1.44,-2.35,0.92,2.91
12.291,-1.83,-1.40,0.96,2.50
12.301,-2.03,-0.85,0.91,2.38
12.311,-1.95,-0.80,0.95,2.31
12.321,-1.57,-1.23,1.13,2.29
12.331,-0.88,-1.91,1.28,2.46
12.341,-0.07,-2.39,1.21,2.68
12.351,0.74,-2.61,0.94,2.87
12.361,1.51,-2.71,0.41,3.13
12.371,2.00,-1.77,0.03,2.67
12.381,2.31,0.53,-0.31,2.39
12.391,2.98,3.31,-0.93,4.55
12.401,3.89,6.40,-1.67,7.67
12.411,4.75,8.09,-2.77,9.78
12.421,4.60,7.37,-3.44,9.35
12.431,2.78,5.29,-4.12,7.26
12.441,-0.01,3.68,-4.64,5.92
12.451,-1.39,1.85,-4.83,5.35
12.461,-0.74,-0.07,-4.45,4.51
12.471,0.41,-0.79,-3.21,3.33
12.481,0.62,-0.84,-1.84,2.12
12.491,-0.00,-0.15,-0.40,0.43
12.501,-1.42,2.75,0.82,3.20
12.511,-2.85,9.17,1.28,9.69
12.521,-2.51,15.48,0.63,15.69
12.532,-1.42,16.24,-0.04,16.30
12.541,-2.51,10.88,1.96,11.34
12.551,-3.19,4.23,3.77,6.50
12.561,-3.13,-0.84,4.45,5.51
12.571,-2.08,-3.87,5.06,6.70
12.581,-0.79,-4.87,5.13,7.12
12.590,-0.07,-3.52,4.52,5.73
12.601,0.52,-1.90,2.95,3.55
12.610,1.11,-0.99,1.33,2.00
12.621,1.23,-0.50,0.18,1.34
12.631,0.23,-0.23,-0.42,0.53
12.641,-2.32,0.10,-0.38,2.35
12.651,-4.96,0.42,-0.39,5.00
12.660,-6.27,0.49,0.03,6.29
12.670,-6.04,-0.15,0.81,6.10
12.681,-4.83,-0.98,1.25,5.08
12.691,-3.34,-1.77,1.44,4.04
12.701,-2.38,-2.66,1.61,3.92
12.710,-2.11,-3.65,1.21,4.39
12.720,-1.76,-4.85,0.14,5.16
12.730,-1.47,-5.96,-0.76,6.18
12.740,-1.40,-6.50,-1.18,6.75
12.750,-1.52,-6.12,-1.57,6.50
12.760,-1.84,-4.89,-1.89,5.56
12.770,-2.10,-3.40,-1.90,4.43
12.780,-2.28,-2.08,-1.44,3.40
12.790,-2.23,-0.90,-0.67,2.50
12.800,-1.84,0.10,0.25,1.86
12.810,-1.42,0.92,0.97,1.95
12.820,-1.25,1.43,1.00,2.15
12.830,-1.33,1.73,0.11,2.19
12.840,-1.16,1.77,-0.87,2.29
12.850,-0.80,1.32,-1.54,2.17
12.860,-0.46,0.45,-1.86,1.97
12.870,-0.10,-0.36,-2.10,2.13
12.880,0.30,-0.61,-2.63,2.72
12.890,0.69,-0.57,-3.44,3.56
12.900,1.04,-0.52,-4.12,4.28
12.910,1.57,-0.60,-4.18,4.50
12.920,2.05,-0.83,-3.83,4.42
12.930,2.43,-0.90,-3.53,4.38
12.940,2.86,-0.58,-3.08,4.25
12.950,3.32,0.16,-2.72,4.29
12.960,3.87,0.83,-2.50,4.68
12.970,4.00,1.37,-2.24,4.79
12.980,3.79,1.83,-2.27,4.78
12.990,3.63,2.12,-2.80,5.05
13.000,3.36,2.35,-3.43,5.35
13.010,2.70,2.46,-3.43,5.01
13.020,2.32,2.03,-3.25,4.48
13.030,2.59,0.96,-3.28,4.29
13.040,2.83,0.31,-3.10,4.21
13.050,3.05,0.60,-2.27,3.85
13.060,2.96,0.91,-1.56,3.47
13.070,2.43,0.47,-1.51,2.90
13.080,1.60,-0.26,-1.59,2.27
13.090,0.49,-0.87,-1.11,1.49
13.100,-0.65,-1.38,-0.02,1.52
13.110,-1.79,-1.73,1.22,2.77
13.120,-2.66,-1.96,2.18,3.96
13.130,-3.64,-2.30,3.06,5.28
13.140,-4.87,-1.97,4.14,6.69
13.150,-6.08,-0.28,4.30,7.45
13.160,-7.28,2.76,4.18,8.84
13.170,-7.67,6.52,3.54,10.67
13.180,-6.19,9.32,3.13,11.61
13.190,-3.54,10.60,3.53,11.72
13.200,-0.72,10.67,3.81,11.35
13.210,1.28,9.49,4.38,10.53
13.219,2.46,7.39,5.04,9.28
13.230,3.66,4.77,4.98,7.81
13.240,4.95,1.93,4.48,6.95
13.250,5.28,-1.46,3.15,6.32
13.260,5.32,-6.37,0.63,8.32
13.270,4.12,-6.04,-0.03,7.31
13.280,3.86,-5.04,-2.30,6.76
13.290,3.52,-5.81,-2.41,7.20
13.299,3.52,-6.47,-1.99,7.63
13.310,3.03,-6.72,-1.64,7.55
13.319,2.13,-6.24,-1.27,6.71
13.330,1.27,-6.18,-0.82,6.37
13.339,0.50,-6.30,-0.13,6.33
13.349,-0.04,-5.98,0.35,5.99
13.359,-0.29,-5.27,0.86,5.34
13.370,-0.24,-4.20,1.37,4.42
13.379,-0.21,-3.11,1.54,3.47
13.389,-0.27,-2.31,1.48,2.75
13.399,-0.50,-1.72,1.09,2.10
13.409,-0.70,-1.21,0.78,1.60
13.419,-0.64,-0.91,0.75,1.34
13.429,-0.36,-0.92,0.94,1.36
13.439,-0.05,-1.25,0.91,1.55
13.449,-0.05,-1.12,0.57,1.26
13.459,-0.16,-0.08,0.11,0.21
13.469,0.04,1.31,-0.45,1.38
13.479,0.53,3.18,-1.33,3.48
13.489,1.49,5.97,-2.47,6.63
13.499,3.13,8.88,-3.64,10.09
13.509,4.49,8.22,-4.43,10.36
13.519,3.87,5.38,-4.84,8.20
13.529,2.08,3.12,-5.09,6.32
13.539,1.19,1.18,-4.99,5.27
13.549,1.50,-0.28,-4.41,4.66
13.559,1.81,-0.72,-3.30,3.83
13.569,1.58,-0.80,-2.03,2.69
13.579,0.73,-0.43,-0.59,1.04
13.589,-0.55,1.21,0.64,1.47
13.599,-2.27,5.97,1.51,6.57
13.609,-3.88,13.01,0.72,13.59
13.620,-3.73,16.30,-1.12,16.75
13.629,-4.75,13.21,2.03,14.18
13.639,-5.29,6.63,4.89,9.79
13.649,-4.58,0.98,6.25,7.81
13.659,-3.04,-1.69,7.00,7.82
13.669,-1.88,-2.82,6.47,7.30
13.679,-1.10,-2.64,4.96,5.73
13.689,-0.04,-1.81,3.15,3.63
13.699,0.73,-1.46,1.63,2.30
13.709,0.49,-1.53,0.31,1.64
13.719,-1.23,-1.71,-0.48,2.16
13.729,-3.79,-1.70,-0.91,4.25
13.739,-5.68,-1.57,-0.89,5.96
13.749,-6.08,-1.75,-0.37,6.34
13.759,-5.26,-2.33,0.07,5.75
13.769,-3.66,-2.78,0.11,4.59
13.779,-2.34,-3.18,0.19,3.95
13.789,-1.50,-3.48,0.24,3.80
13.799,-1.13,-3.92,0.08,4.08
13.809,-0.87,-4.71,-0.60,4.83
13.819,-0.81,-5.62,-1.24,5.81
13.829,-1.02,-6.06,-1.58,6.35
13.839,-1.23,-5.78,-1.85,6.19
13.848,-1.40,-4.72,-1.97,5.30
13.859,-1.66,-3.28,-1.53,3.98
13.869,-1.78,-1.64,-0.72,2.52
13.879,-1.76,0.38,0.09,1.80
13.889,-1.54,2.07,0.71,2.67
13.899,-1.45,2.59,0.79,3.07
13.909,-1.51,2.93,0.25,3.31
13.919,-1.16,3.09,-0.39,3.33
13.929,-0.88,2.67,-0.86,2.94
13.939,-0.61,1.79,-1.39,2.35
13.948,-0.44,0.45,-1.88,1.98
13.959,-0.17,-0.52,-2.58,2.64
13.968,0.26,-1.22,-3.57,3.78
13.979,0.79,-1.76,-4.44,4.84
13.988,1.40,-2.04,-4.58,5.21
13.999,2.11,-2.03,-4.38,5.27
14.008,2.85,-1.52,-4.00,5.14
14.018,3.48,-0.65,-3.22,4.79
14.028,3.83,0.49,-2.73,4.73
14.038,4.10,1.61,-2.41,5.02
14.048,3.79,2.36,-2.12,4.94
14.058,3.28,2.76,-2.31,4.87
14.068,3.08,2.87,-2.99,5.17
14.078,2.78,2.88,-3.49,5.31
14.088,2.28,2.63,-3.37,4.84
14.098,2.37,1.82,-3.10,4.31
14.108,2.79,0.83,-2.69,3.97
14.118,3.27,0.28,-2.29,4.00
14.128,3.52,0.27,-1.47,3.82
14.138,3.03,0.21,-0.83,3.15
14.148,2.41,-0.13,-0.82,2.55
14.158,1.45,-0.74,-0.89,1.85
14.168,0.14,-1.28,-0.34,1.33
14.178,-1.17,-1.51,0.82,2.08
14.188,-2.36,-1.70,1.84,3.44
14.198,-3.43,-2.15,2.57,4.80
14.208,-4.69,-2.49,3.52,6.37
14.218,-5.99,-1.77,4.15,7.49
14.228,-7.37,0.47,4.14,8.47
14.238,-8.23,4.07,3.74,9.91
14.248,-7.51,7.83,2.99,11.26
14.258,-5.37,10.29,3.13,12.02
14.269,-2.61,11.20,3.73,12.10
14.279,-0.12,10.72,4.06,11.46
14.288,1.44,9.01,4.69,10.26
14.298,2.73,6.46,5.05,8.64
14.308,4.14,3.60,4.55,7.13
14.318,5.27,0.79,3.95,6.63
14.328,5.57,-2.68,2.48,6.66
14.338,5.63,-6.62,0.84,8.73
14.348,5.26,-5.60,-0.48,7.69
14.358,5.05,-5.48,-2.38,7.82
14.368,4.54,-6.52,-2.34,8.28
14.378,3.88,-6.58,-2.18,7.95
14.388,3.11,-6.49,-1.96,7.46
14.398,2.12,-6.32,-1.39,6.81
14.408,1.14,-6.33,-0.84,6.49
14.418,0.33,-6.46,-0.32,6.47
14.428,-0.19,-6.18,0.18,6.18
14.438,-0.50,-5.41,0.78,5.49
14.448,-0.74,-4.31,1.29,4.56
14.458,-1.10,-3.27,1.46,3.75
14.468,-1.57,-2.32,1.44,3.16
14.478,-1.83,-1.50,1.33,2.71
14.488,-1.83,-0.88,1.28,2.40
14.498,-1.43,-0.74,1.40,2.14
14.508,-0.75,-1.08,1.51,2.00
14.518,-0.05,-1.75,1.29,2.17
14.528,0.52,-1.95,0.69,2.13
14.538,0.71,-0.57,0.16,0.93
14.548,0.93,1.26,-0.50,1.64
14.558,1.48,3.31,-1.25,3.83
14.568,2.11,7.20,-2.52,7.92
14.577,3.65,10.39,-4.16,11.77
14.587,3.78,8.98,-5.13,11.01
14.597,2.08,6.01,-5.34,8.30
14.607,0.53,3.21,-4.94,5.91
14.618,0.14,0.84,-4.65,4.73
14.628,1.02,-0.17,-4.28,4.41
14.637,1.95,-0.12,-3.56,4.06
14.647,1.95,0.05,-2.54,3.20
14.657,1.31,0.26,-1.25,1.83
14.668,0.25,1.46,0.14,1.49
14.677,-1.06,5.51,1.37,5.77
14.688,-2.35,10.82,1.25,11.14
14.698,-2.53,13.65,-0.12,13.88
14.708,-3.87,11.73,2.00,12.51
14.717,-4.79,6.90,4.37,9.47
14.727,-4.51,1.90,5.59,7.43
14.737,-3.32,-1.12,6.38,7.27
14.747,-2.45,-2.50,6.16,7.08
14.757,-1.74,-2.75,4.77,5.77
14.767,-0.73,-2.60,2.88,3.95
14.777,0.06,-2.29,1.37,2.67
14.787,0.17,-2.47,0.09,2.48
14.797,-0.88,-2.48,-0.33,2.65
14.807,-2.85,-2.00,-0.16,3.49
14.817,-4.58,-1.38,-0.21,4.79
14.827,-4.97,-1.44,-0.33,5.19
14.837,-4.11,-1.77,0.04,4.47
14.847,-3.09,-1.92,0.51,3.68
14.857,-2.67,-2.42,0.59,3.65
14.867,-2.57,-3.06,0.49,4.02
14.877,-2.27,-3.58,0.50,4.27
14.887,-1.73,-4.37,-0.09,4.70
14.897,-1.35,-5.61,-0.71,5.82
14.907,-1.45,-6.49,-0.88,6.71
14.917,-1.90,-6.22,-0.99,6.58
14.927,-2.24,-5.07,-1.19,5.67
14.937,-2.44,-3.25,-1.30,4.26
14.947,-2.37,-1.30,-0.90,2.84
14.957,-2.14,0.37,-0.02,2.17
14.967,-1.76,1.74,1.14,2.73
14.977,-1.75,2.47,1.43,3.35
14.987,-1.86,3.14,0.25,3.66
14.997,-1.10,3.38,-0.78,3.64
15.007,-0.30,2.66,-1.35,3.00
15.017,0.16,1.48,-1.75,2.30
15.027,0.25,0.51,-1.80,1.88
15.037,0.30,0.11,-2.10,2.13
15.047,0.34,0.04,-2.81,2.83
15.057,0.58,-0.01,-3.75,3.79
15.067,1.04,-0.40,-4.33,4.47
15.077,1.61,-1.10,-4.46,4.86
15.087,2.13,-1.57,-4.36,5.10
15.097,2.40,-1.66,-4.12,5.05
15.107,2.69,-1.10,-3.78,4.77
15.117,3.38,-0.08,-3.20,4.65
15.127,4.04,0.78,-2.54,4.83
15.137,4.02,1.36,-2.48,4.91
15.146,3.92,1.53,-3.08,5.22
15.157,3.88,1.47,-3.76,5.61
15.167,3.46,1.73,-3.76,5.40
15.177,3.01,1.68,-3.43,4.86
15.187,3.22,0.70,-3.22,4.60
15.196,3.46,-0.14,-3.05,4.62
15.206,3.79,-0.01,-2.65,4.63
15.217,3.62,0.30,-1.98,4.14
15.226,2.99,-0.02,-1.62,3.40
15.237,2.12,-0.78,-1.34,2.63
15.246,0.93,-1.38,-0.58,1.77
15.257,-0.47,-1.42,0.64,1.63
15.267,-1.72,-0.83,1.49,2.43
15.277,-2.78,-0.50,2.05,3.49
15.287,-4.18,-0.64,3.04,5.21
15.296,-5.76,-0.51,3.97,7.01
15.307,-6.97,1.02,4.60,8.42
15.317,-7.81,4.33,5.27,10.36
15.326,-7.42,8.14,4.61,11.94
15.337,-5.71,10.65,3.71,12.64
15.348,-3.40,11.73,3.97,12.84
15.357,-0.87,11.39,4.33,12.22
15.366,1.10,9.77,4.77,10.93
15.376,2.77,7.15,5.10,9.21
15.386,4.30,4.10,4.81,7.64
15.396,4.83,1.55,3.99,6.46
15.406,5.10,-2.05,2.41,6.00
15.416,5.01,-5.82,1.01,7.75
15.426,3.96,-4.48,0.44,6.00
15.436,3.97,-5.77,-2.11,7.32
15.446,3.81,-6.69,-1.84,7.91
15.456,3.04,-7.11,-2.10,8.01
15.466,2.06,-7.14,-2.15,7.74
15.476,1.15,-6.59,-1.81,6.93
15.486,0.57,-6.30,-1.24,6.45
15.496,-0.14,-6.06,-0.63,6.09
15.506,-0.85,-5.92,-0.12,5.98
15.516,-1.29,-5.56,0.50,5.73
15.526,-1.42,-4.85,1.13,5.17
15.536,-1.16,-4.02,1.51,4.45
15.546,-0.62,-3.45,1.75,3.92
15.556,-0.28,-2.89,1.78,3.41
15.566,-0.13,-2.28,1.58,2.77
15.576,0.08,-1.66,1.59,2.30
15.586,0.59,-1.40,1.84,2.38
15.596,1.11,-1.55,1.76,2.59
15.606,1.03,-1.14,1.29,2.01
15.616,0.61,0.44,0.72,1.04
15.626,0.35,2.47,-0.13,2.50
15.636,0.28,4.49,-1.46,4.73
15.646,0.68,7.19,-2.77,7.74
15.656,2.45,9.03,-4.04,10.19
15.666,3.29,6.96,-4.63,8.98
15.676,2.15,4.48,-4.64,6.80
15.686,0.87,2.84,-4.00,4.98
15.696,0.69,1.31,-3.26,3.58
15.706,1.44,0.18,-2.79,3.14
15.716,2.19,0.01,-2.03,2.98
15.726,2.15,-0.01,-1.04,2.39
15.736,1.27,0.46,0.01,1.35
15.746,-0.09,2.46,0.84,2.60
15.756,-1.76,6.99,1.44,7.35
15.766,-2.85,12.42,0.76,12.77
15.777,-3.52,14.15,-0.72,14.60
15.786,-5.18,11.37,1.22,12.55
15.795,-5.34,5.76,3.33,8.53
15.806,-4.59,0.39,4.49,6.43
15.816,-3.13,-3.01,5.48,6.99
15.825,-1.94,-4.51,5.73,7.54
15.836,-1.46,-3.89,5.03,6.53
15.846,-0.82,-2.85,3.26,4.41
15.856,0.03,-2.35,1.51,2.79
15.866,0.58,-2.08,0.21,2.17
15.876,0.44,-1.93,-0.47,2.03
15.886,-1.24,-1.56,-0.32,2.02
15.895,-3.77,-1.15,0.07,3.95
15.906,-5.26,-0.51,0.33,5.30
15.916,-5.21,-0.37,0.61,5.26
15.926,-4.20,-0.40,0.84,4.30
15.936,-3.00,-0.81,0.96,3.26
15.945,-2.26,-1.25,1.14,2.82
15.955,-1.86,-1.91,1.05,2.87
15.965,-1.48,-3.06,0.13,3.41
15.975,-1.22,-4.43,-0.85,4.67
15.985,-1.20,-5.40,-1.36,5.70
15.995,-1.51,-5.69,-1.55,6.08
16.005,-1.80,-5.03,-1.61,5.58
16.015,-2.05,-3.88,-1.46,4.63
16.025,-2.40,-2.50,-0.93,3.59
16.035,-2.60,-1.11,-0.24,2.84
16.045,-2.66,0.09,0.60,2.73
16.055,-2.46,0.94,1.33,2.96
16.065,-2.02,1.61,1.60,3.03
16.075,-1.75,2.06,1.18,2.95
16.085,-1.49,2.30,0.22,2.75
16.095,-1.02,1.90,-0.96,2.36
16.105,-0.59,0.93,-2.00,2.29
16.115,-0.17,-0.10,-2.84,2.85
16.125,0.20,-0.63,-3.63,3.69
16.135,0.61,-0.87,-4.45,4.58
16.145,1.22,-1.04,-5.08,5.32
16.155,1.74,-1.19,-5.19,5.60
16.165,2.18,-1.31,-4.87,5.49
16.175,2.72,-1.21,-4.44,5.34
16.185,3.35,-0.65,-3.66,5.00
16.195,3.68,0.26,-2.81,4.64
16.205,4.07,1.13,-2.40,4.86
16.215,4.21,1.66,-1.98,4.94
16.225,4.16,1.88,-1.91,4.95
16.235,4.12,1.61,-2.47,5.06
16.245,3.78,1.55,-3.49,5.37
16.255,3.21,1.74,-4.30,5.64
16.265,2.64,1.84,-4.34,5.40
16.275,2.52,1.37,-4.09,5.00
16.285,2.76,0.42,-3.89,4.79
16.295,2.61,-0.03,-3.17,4.11
16.305,2.67,0.26,-1.96,3.32
16.315,2.76,0.39,-1.11,3.00
16.325,2.38,-0.22,-0.80,2.52
16.335,1.53,-1.09,-0.52,1.95
16.345,0.35,-1.88,0.05,1.92
16.355,-0.65,-2.31,0.89,2.56
16.365,-1.50,-2.18,1.82,3.21
16.375,-2.33,-2.16,2.82,4.25
16.385,-3.34,-2.35,4.29,5.92
16.395,-4.43,-1.33,5.17,6.93
16.405,-5.97,1.61,4.42,7.60
16.415,-7.64,5.50,3.16,9.93
16.425,-8.24,8.51,2.55,12.12
16.435,-6.14,10.67,2.59,12.58
16.446,-2.39,11.49,2.82,12.07
16.455,0.95,10.54,3.27,11.07
16.465,3.02,8.45,4.04,9.84
16.475,4.40,6.57,4.63,9.16
16.484,5.71,4.50,4.53,8.57
16.495,6.40,1.74,4.24,7.88
16.505,6.13,-2.26,2.38,6.95
16.515,4.92,-6.25,0.84,8.00
16.525,3.37,-4.76,-0.40,5.85
16.535,3.28,-5.13,-2.26,6.49
16.545,3.33,-6.07,-2.07,7.23
16.555,3.14,-6.21,-1.87,7.21
16.565,2.34,-5.30,-1.47,5.98
16.574,1.15,-5.38,-1.66,5.74
16.584,0.11,-5.90,-1.35,6.05
16.594,-0.56,-6.12,-0.64,6.18
16.604,-0.89,-5.79,0.02,5.86
16.614,-0.86,-5.02,0.64,5.13
16.625,-0.66,-4.15,1.17,4.36
16.634,-0.62,-3.49,1.30,3.77
16.644,-0.74,-3.11,1.24,3.43
16.654,-0.88,-2.93,1.13,3.26
16.664,-0.77,-2.88,1.17,3.20
16.674,-0.40,-3.02,1.46,3.38
16.684,-0.03,-3.07,1.72,3.52
16.694,0.12,-2.73,1.50,3.11
16.704,0.12,-1.37,1.07,1.74
16.714,0.02,0.75,0.51,0.90
16.724,0.03,2.90,-0.21,2.91
16.734,0.50,5.75,-1.18,5.89
16.744,1.64,9.37,-2.85,9.93
16.754,3.07,10.30,-4.55,11.67
16.764,2.90,7.45,-5.21,9.54
16.774,1.45,3.95,-5.18,6.68
16.784,0.65,1.31,-4.93,5.14
16.794,1.05,-0.18,-4.85,4.96
16.804,2.07,-0.52,-4.21,4.72
16.814,2.64,-0.44,-3.01,4.03
16.824,2.20,-0.23,-1.69,2.78
16.834,1.16,0.09,-0.08,1.17
16.844,-0.10,1.59,1.56,2.23
16.854,-1.90,6.03,2.52,6.80
16.864,-4.34,11.92,0.96,12.72
16.875,-4.78,15.47,-1.63,16.28
16.884,-4.95,12.44,1.68,13.49
16.894,-4.72,5.85,4.37,8.70
16.904,-3.95,0.26,5.44,6.73
16.914,-2.79,-2.60,6.28,7.35
16.924,-2.00,-3.60,5.73,7.05
16.934,-1.25,-3.49,3.95,5.42
16.944,0.01,-3.24,2.01,3.81
16.954,1.02,-2.85,0.63,3.10
16.964,0.97,-2.55,-0.58,2.79
16.974,-0.23,-1.86,-1.02,2.13
16.984,-2.30,-0.85,-0.63,2.54
16.994,-4.17,-0.30,-0.19,4.19
17.004,-4.78,0.06,0.11,4.78
17.014,-4.14,-0.03,0.17,4.14
17.024,-3.09,-0.01,0.68,3.16
17.034,-2.25,-0.19,1.16,2.54
17.044,-1.82,-1.21,1.27,2.53
17.054,-1.74,-2.56,0.87,3.21
17.064,-1.49,-4.11,-0.01,4.37
17.074,-1.42,-5.59,-0.77,5.82
17.084,-1.59,-6.39,-1.22,6.70
17.094,-1.80,-6.09,-1.48,6.52
17.103,-1.97,-5.05,-1.63,5.66
17.114,-2.13,-3.30,-1.46,4.19
17.124,-2.10,-1.55,-0.95,2.77
17.134,-1.83,-0.41,-0.24,1.89
17.144,-1.50,0.52,0.72,1.74
17.154,-1.03,1.14,1.24,1.97
17.164,-0.86,1.73,0.94,2.15
17.174,-0.96,2.17,-0.06,2.37
17.184,-1.00,2.06,-0.99,2.50
17.193,-0.99,1.51,-1.69,2.47
17.203,-0.87,0.73,-2.24,2.51
17.213,-0.66,0.24,-2.45,2.55
17.224,-0.24,-0.08,-2.83,2.85
17.233,0.22,-0.39,-3.51,3.53
17.243,0.62,-0.93,-3.96,4.12
17.253,1.01,-1.38,-4.17,4.51
17.263,1.29,-1.70,-4.25,4.76
17.273,1.56,-1.76,-4.33,4.93
17.283,2.14,-1.26,-4.18,4.87
17.293,3.13,-0.54,-3.55,4.76
17.303,4.16,-0.01,-2.67,4.94
17.313,4.62,0.38,-2.08,5.08
17.323,4.49,0.49,-2.32,5.08
17.333,4.24,0.73,-3.03,5.26
17.343,3.47,1.37,-3.19,4.91
17.353,2.78,1.39,-3.06,4.36
17.363,3.05,0.46,-3.19,4.44
17.373,3.37,-0.14,-3.34,4.74
17.383,3.57,0.00,-2.90,4.60
17.393,3.15,0.13,-1.98,3.72
17.403,2.48,-0.52,-1.55,2.97
17.413,1.61,-1.34,-1.07,2.35
17.423,0.17,-1.74,0.05,1.75
17.433,-0.99,-1.13,1.29,1.98
17.443,-2.01,-0.27,1.77,2.69
17.453,-3.37,-0.04,2.31,4.08
17.463,-5.21,0.06,3.51,6.29
17.473,-6.99,0.69,4.50,8.34
17.483,-8.14,2.86,5.33,10.15
17.493,-8.49,6.59,5.46,12.05
17.503,-7.34,10.17,4.16,13.22
17.513,-5.19,12.17,3.48,13.68
17.524,-2.53,12.85,3.86,13.66
17.533,0.17,11.71,4.48,12.54
17.543,2.18,9.33,5.04,10.83
17.553,3.77,6.60,5.08,9.15
17.563,5.23,3.71,4.29,7.71
17.573,6.04,0.51,3.00,6.77
17.583,6.57,-4.66,1.13,8.14
17.593,5.07,-5.67,1.19,7.70
17.603,4.66,-5.54,-1.29,7.36
17.613,4.64,-7.19,-1.91,8.76
17.623,3.77,-7.43,-1.57,8.48
17.633,3.07,-7.06,-1.61,7.86
17.643,2.23,-6.95,-1.48,7.45
17.653,1.01,-6.70,-1.06,6.86
17.663,0.14,-6.69,-0.40,6.71
17.673,-0.50,-6.67,0.26,6.70
17.683,-0.94,-6.21,0.72,6.32
17.693,-1.01,-5.38,1.16,5.60
17.703,-0.78,-4.16,1.49,4.49
17.713,-0.41,-3.16,1.42,3.49
17.723,-0.15,-2.51,1.21,2.79
17.733,-0.27,-1.89,0.96,2.14
17.743,-0.48,-1.05,1.00,1.53
17.753,-0.35,-0.42,1.32,1.43
17.763,-0.10,-0.12,1.40,1.41
17.773,-0.06,0.19,1.16,1.18
17.783,-0.17,1.13,0.94,1.48
17.793,-0.01,2.66,0.85,2.79
17.803,0.60,3.63,0.01,3.68
17.813,1.29,5.53,-1.46,5.87
17.823,2.92,8.02,-3.26,9.14
17.833,4.63,7.64,-4.81,10.14
17.843,4.31,4.95,-4.92,8.20
17.852,2.63,2.59,-4.48,5.81
17.863,1.48,0.94,-4.02,4.38
17.872,1.19,-0.72,-3.67,3.92
17.883,1.16,-1.51,-2.80,3.38
17.892,0.93,-1.43,-1.61,2.34
17.902,0.19,-0.50,-0.50,0.73
17.912,-1.03,2.75,0.58,2.99
17.922,-2.42,8.22,1.58,8.72
17.932,-2.94,14.09,0.88,14.42
17.944,-3.09,15.73,0.02,16.03
17.952,-4.42,12.02,1.74,12.93
17.962,-4.76,5.76,3.38,8.20
17.972,-3.83,0.13,4.19,5.68
17.982,-2.16,-3.54,4.99,6.50
17.992,-0.56,-5.19,5.03,7.25
18.002,0.19,-4.66,4.42,6.43
18.012,0.61,-3.23,2.88,4.37
18.022,0.91,-2.09,1.24,2.59
18.032,1.03,-1.58,-0.08,1.89
18.042,0.59,-1.43,-0.78,1.73
18.052,-1.22,-1.18,-0.90,1.92
18.062,-3.99,-0.64,-1.11,4.19
18.072,-5.88,-0.51,-1.15,6.02
18.082,-6.27,-1.00,-0.60,6.38
18.092,-5.42,-1.16,0.12,5.54
18.102,-3.95,-1.56,0.87,4.33
18.112,-2.60,-2.13,1.52,3.69
18.122,-1.91,-2.88,1.66,3.83
18.132,-1.27,-4.08,0.73,4.34
18.142,-0.81,-5.22,-0.19,5.28
18.152,-0.69,-5.68,-0.59,5.75
18.162,-0.75,-5.22,-0.71,5.32
18.172,-1.09,-3.96,-0.78,4.18
18.182,-1.57,-2.18,-0.57,2.74
18.192,-1.84,-0.18,-0.26,1.87
18.202,-1.96,1.58,0.00,2.52
18.212,-1.94,2.43,0.21,3.11
18.222,-1.67,2.33,0.39,2.90
18.232,-1.58,1.86,0.33,2.46
18.242,-1.63,1.64,-0.22,2.32
18.252,-1.55,1.24,-0.82,2.15
18.262,-1.57,0.23,-1.36,2.08
18.272,-1.70,-0.80,-1.68,2.52
18.282,-1.50,-1.32,-2.12,2.91
18.292,-0.99,-1.59,-2.86,3.42
18.302,-0.25,-1.36,-3.62,3.88
18.312,0.52,-1.21,-3.99,4.20
18.322,1.23,-1.15,-3.99,4.33
18.332,1.71,-1.26,-3.86,4.40
18.342,1.88,-1.25,-3.70,4.33
18.352,2.15,-0.83,-3.61,4.28
18.362,2.51,-0.12,-3.18,4.05
18.372,3.02,0.64,-2.72,4.11
18.382,3.41,1.19,-2.59,4.45
18.392,3.75,1.42,-2.90,4.94
18.402,3.90,1.47,-3.29,5.31
18.412,3.67,1.54,-3.38,5.22
18.422,3.00,1.48,-2.98,4.48
18.431,2.75,0.67,-2.66,3.88
18.442,2.83,-0.32,-2.23,3.62
18.451,3.13,-0.48,-1.76,3.63
18.462,3.38,0.28,-1.12,3.57
18.472,2.98,0.60,-0.92,3.18
18.481,2.47,0.21,-1.20,2.75
18.491,1.52,-0.30,-1.16,1.93
18.501,0.05,-0.67,-0.75,1.01
18.511,-1.28,-0.67,-0.28,1.47
18.521,-2.81,-0.54,0.69,2.94
18.531,-4.33,-0.39,2.32,4.93
18.541,-5.47,-0.04,3.63,6.57
18.551,-5.74,0.47,4.32,7.20
18.561,-5.37,1.55,4.71,7.31
18.571,-5.06,3.07,4.87,7.66
18.581,-4.39,5.13,3.98,7.84
18.591,-3.20,6.91,2.68,8.07
18.601,-1.99,8.04,2.16,8.56
18.611,-1.11,9.33,2.88,9.83
18.622,0.17,10.04,4.16,10.87
18.631,1.92,9.42,4.54,10.63
18.641,3.39,6.82,4.08,8.64
18.651,4.52,2.98,3.08,6.23
18.661,5.35,-2.21,1.15,5.90
18.671,4.82,-6.00,0.68,7.72
18.681,3.86,-6.00,-0.19,7.14
18.691,4.85,-7.75,-1.91,9.34
18.701,4.54,-8.18,-1.23,9.44
18.711,3.36,-7.26,-0.89,8.05
18.721,2.33,-6.28,-0.35,6.71
18.731,1.18,-5.60,0.23,5.73
18.741,0.24,-5.24,0.59,5.28
18.751,-0.40,-4.72,0.96,4.83
18.761,-0.74,-4.13,1.20,4.36
18.771,-0.86,-3.33,1.37,3.70
18.781,-0.83,-2.56,1.52,3.09
18.791,-0.97,-2.01,1.46,2.67
18.801,-1.36,-1.53,1.24,2.39
18.811,-1.87,-0.96,1.13,2.38
18.821,-2.17,-0.50,1.23,2.55
18.831,-2.15,-0.43,1.34,2.58
18.841,-1.90,-0.72,1.12,2.32
18.851,-1.67,-0.88,0.78,2.04
18.861,-1.30,-0.56,0.45,1.49
18.871,-0.54,0.01,0.18,0.57
18.881,0.47,1.62,0.07,1.68
18.891,1.62,2.86,-0.92,3.41
18.901,2.32,4.71,-2.15,5.68
18.911,3.27,5.54,-3.06,7.12
18.921,3.70,4.71,-3.18,6.78
18.931,2.80,2.98,-3.07,5.11
18.941,1.56,1.97,-2.91,3.85
18.951,1.18,0.98,-2.91,3.29
18.961,1.72,-0.18,-3.25,3.68
18.971,2.47,-0.73,-3.43,4.29
18.981,2.84,-0.64,-3.25,4.37
18.991,2.93,-0.11,-2.29,3.72
19.001,2.84,0.44,-1.06,3.06
19.011,2.20,1.90,0.29,2.92
19.021,1.10,4.81,1.44,5.14
19.031,-0.45,7.73,1.41,7.87
19.040,-1.95,11.16,-0.56,11.34
19.052,-4.16,12.32,-0.93,13.04
19.061,-4.85,9.82,2.05,11.14
19.071,-5.24,5.19,4.72,8.76
19.081,-4.63,1.35,5.80,7.54
19.091,-3.35,-1.28,5.56,6.62
19.100,-2.38,-2.68,4.44,5.71
19.111,-1.85,-3.32,2.99,4.83
19.121,-1.31,-3.50,1.74,4.12
19.130,-1.03,-3.61,0.92,3.87
19.141,-1.60,-3.60,0.88,4.03
19.150,-3.05,-2.72,0.87,4.18
19.161,-4.42,-1.66,0.31,4.73
19.171,-4.66,-0.90,-0.22,4.75
19.181,-3.52,-0.54,-0.13,3.56
19.190,-2.18,-0.26,0.31,2.21
19.200,-1.52,-0.13,0.56,1.63
19.210,-1.30,-0.40,0.68,1.52
19.220,-1.14,-1.20,0.25,1.68
19.230,-0.87,-2.12,-0.56,2.36
19.240,-0.43,-3.25,-1.22,3.50
19.250,-0.44,-4.19,-1.53,4.48
19.260,-0.64,-4.85,-1.74,5.19
19.270,-0.86,-4.74,-1.73,5.12
19.280,-1.26,-3.83,-1.05,4.17
19.290,-1.59,-1.93,-0.06,2.50
19.300,-1.70,0.63,1.00,2.07
19.310,-1.92,2.51,1.78,3.63
19.320,-2.18,2.83,1.10,3.74
19.330,-2.21,2.07,-0.29,3.04
19.340,-1.72,0.92,-0.97,2.18
19.350,-1.34,0.01,-0.80,1.56
19.360,-1.41,-0.75,-0.54,1.69
19.370,-1.13,-1.76,-1.33,2.48
19.380,-1.50,-2.09,-1.47,2.97
19.390,-1.43,-1.95,-2.15,3.24
19.400,-1.30,-1.35,-2.29,2.95
19.410,-1.06,-0.70,-2.03,2.40
19.420,0.20,-0.43,-2.97,3.01
19.430,1.09,-0.38,-3.02,3.23
19.440,1.87,-0.49,-2.85,3.45
19.450,2.32,-0.79,-2.47,3.48
19.460,2.35,-0.92,-2.04,3.25
19.470,2.18,-0.70,-1.60,2.79
19.480,1.79,-0.00,-1.41,2.28
19.490,1.72,0.77,-1.98,2.73
19.500,1.78,1.33,-2.73,3.52
19.510,1.54,1.94,-3.16,4.02
19.520,1.22,2.28,-3.33,4.21
19.530,1.04,2.12,-3.18,3.96
19.540,1.13,1.16,-2.80,3.23
19.550,1.33,-0.02,-2.33,2.68
19.560,1.75,-0.93,-1.98,2.80
19.570,2.03,-0.85,-1.35,2.58
19.580,1.91,0.04,-0.64,2.01
19.590,1.36,0.26,-0.28,1.42
19.600,0.52,-0.21,-0.22,0.60
19.610,-0.38,-0.92,-0.08,1.00
19.620,-1.15,-1.53,0.31,1.94
19.630,-1.83,-1.00,0.64,2.18
19.640,-2.92,-1.59,1.52,3.66
19.650,-3.68,-1.91,2.62,4.90
19.660,-4.30,-1.54,4.03,6.09
19.670,-3.87,-0.67,5.94,7.12
19.680,-3.36,0.56,6.88,7.67
19.690,-2.73,3.77,6.19,7.74
19.700,-1.97,6.70,4.49,8.30
19.710,-1.50,8.55,3.07,9.21
19.720,-0.61,9.97,3.38,10.55
19.730,0.78,9.85,3.84,10.60
19.740,2.95,8.33,3.45,9.48
19.750,5.10,5.89,2.41,8.15
19.760,6.43,3.34,1.30,7.36
19.770,6.10,0.24,1.09,6.20
19.780,5.13,-3.85,0.14,6.42
19.790,-0.12,-7.69,2.66,8.14
19.800,2.36,-7.02,-3.62,8.24
19.809,5.12,-4.76,-2.44,7.41
19.820,4.67,-2.34,-1.32,5.39
19.829,4.47,-2.15,-0.76,5.02
19.840,2.88,-2.35,0.55,3.76
19.849,1.13,-2.21,0.95,2.65
19.859,-0.28,-2.84,1.27,3.12
19.869,-0.94,-3.46,1.63,3.93
19.880,-1.68,-2.39,1.78,3.42
19.889,-2.48,-1.44,0.45,2.90
19.899,-1.55,-1.64,0.60,2.34
19.909,-1.00,-1.16,0.80,1.73
19.919,-0.79,-1.15,0.49,1.48
19.929,-1.16,-0.92,0.47,1.55
19.939,-1.44,-1.11,0.85,2.01
19.949,-1.51,-1.40,1.25,2.41
19.959,-1.12,-1.02,1.22,1.95
19.969,-0.47,-1.85,0.87,2.10
19.979,-1.20,-1.90,0.67,2.35
19.989,-0.21,-0.61,0.78,1.01
19.999,0.54,1.03,0.48,1.25
20.009,1.07,2.65,0.17,2.86
20.019,1.99,3.35,-0.72,3.96
20.029,2.65,3.81,-1.52,4.89
20.039,2.75,3.33,-2.11,4.81
20.049,2.19,2.38,-2.31,3.97
20.059,1.20,0.76,-2.39,2.78
20.069,0.35,-0.50,-2.46,2.53
20.079,0.54,-0.82,-2.05,2.27
20.089,0.86,-0.70,-1.88,2.19
20.099,1.60,-0.98,-1.89,2.67
20.109,2.29,-0.99,-1.32,2.82
20.119,2.54,-0.42,-0.19,2.58
20.129,2.67,0.55,1.05,2.92
20.139,2.47,2.12,2.19,3.92
20.149,1.89,4.45,2.99,5.68
20.159,1.44,6.51,2.67,7.18
20.169,0.62,8.92,1.44,9.06
20.179,-0.59,9.70,0.12,9.72
20.189,-2.46,7.88,-0.40,8.27
20.199,-3.08,4.82,0.11,5.72
20.209,-2.30,2.17,0.90,3.29
20.219,-1.32,0.13,1.39,1.92
20.229,-0.74,-1.81,1.53,2.48
20.239,-0.47,-3.55,1.18,3.77
20.249,-0.49,-4.06,-0.50,4.12
20.259,-0.22,-2.84,-0.22,2.86
20.269,-0.51,-1.54,-0.35,1.65
20.279,-0.59,-1.86,-0.48,2.01
20.289,-1.02,-2.46,0.56,2.72
20.299,-1.64,-2.92,1.20,3.56
20.309,-2.18,-2.77,1.74,3.93
20.319,-2.69,-1.86,1.95,3.81
20.329,-4.15,-0.33,1.52,4.44
20.338,-5.46,1.02,1.32,5.71
20.349,-5.69,0.99,1.20,5.90
20.359,-5.09,-0.14,0.82,5.16
20.369,-4.28,-1.18,0.24,4.44
20.379,-3.90,-1.87,-0.05,4.32
20.389,-3.41,-2.35,-0.14,4.14
20.399,-2.76,-2.58,-0.14,3.78
20.409,-2.07,-2.82,-0.51,3.54
20.419,-1.15,-2.09,-1.41,2.77
20.428,-0.47,-0.97,-1.26,1.65
20.439,-0.08,0.13,-0.75,0.77
20.448,0.08,0.59,0.14,0.61
20.458,-0.11,0.60,1.12,1.27
20.468,-0.68,0.80,1.83,2.11
20.479,-1.69,0.83,1.71,2.54
20.488,-2.61,0.77,0.95,2.88
20.499,-3.02,0.37,0.16,3.04
20.508,-2.87,-0.22,-0.26,2.89
20.518,-2.21,-0.29,-0.62,2.31
20.528,-1.54,0.11,-1.01,1.84
20.538,-1.14,0.45,-1.11,1.66
20.548,-0.68,0.61,-0.87,1.26
20.558,0.04,1.03,-0.63,1.21
20.568,0.42,2.10,-0.42,2.18
20.578,0.37,2.91,-0.28,2.95
20.588,0.09,2.74,-0.34,2.76
20.598,0.11,2.18,-1.01,2.41
20.608,0.06,1.94,-1.76,2.62
20.618,-0.03,1.28,-2.43,2.75
20.628,-0.21,0.77,-2.30,2.43
20.638,-0.17,0.45,-2.17,2.22
20.648,-0.14,-0.12,-2.11,2.12
20.658,0.10,-0.41,-2.13,2.17
20.668,0.50,-0.69,-2.10,2.26
20.678,0.94,-0.87,-2.07,2.44
20.688,1.22,-0.20,-1.68,2.09
20.698,1.17,0.27,-1.52,1.94
20.708,0.64,0.07,-1.12,1.29
20.718,-0.00,-0.85,-0.88,1.22
20.728,-0.90,-0.95,-1.11,1.71
20.738,-1.34,-1.04,-1.03,1.98
20.748,-1.26,-0.75,-0.86,1.70
20.758,-0.98,-0.14,-0.86,1.31
20.768,-0.96,1.04,-0.69,1.57
20.778,-0.40,2.64,-0.39,2.70
20.788,0.59,2.99,-0.30,3.06
20.798,1.12,4.34,0.24,4.49
20.808,0.80,5.42,0.69,5.52
20.818,-0.05,5.30,0.81,5.36
20.828,-0.45,5.77,1.49,5.98
20.838,-0.95,4.32,0.36,4.44
20.848,-2.33,2.57,-0.22,3.48
20.858,-1.75,3.33,0.42,3.78
20.868,-1.03,2.91,1.07,3.26
20.878,0.05,3.66,1.58,3.99
20.888,0.82,2.36,1.78,3.07
20.898,1.33,0.00,2.15,2.53
20.908,1.29,-0.64,3.56,3.83
20.918,1.51,-1.86,4.93,5.48
20.928,2.83,-2.50,5.97,7.06
20.938,3.58,-1.63,4.48,5.96
20.948,3.29,-1.84,3.55,5.17
20.958,3.31,1.92,4.00,5.54
20.968,3.66,2.14,1.92,4.65
20.978,3.41,0.77,0.81,3.58
20.988,2.79,2.83,1.57,4.28
20.998,2.51,3.71,2.43,5.10
21.008,3.10,1.91,1.57,3.96
21.017,3.23,2.26,2.71,4.78
21.027,3.96,1.18,0.72,4.19
21.037,5.51,4.31,3.03,7.63
21.048,8.74,4.44,0.37,9.81
21.058,8.79,2.50,-3.27,9.71
21.068,7.39,2.26,-3.26,8.39
21.078,5.77,2.51,-4.53,7.76
21.088,4.37,3.13,-5.53,7.71
21.098,3.61,2.66,-5.92,7.42
21.108,3.01,2.38,-4.73,6.09
21.117,2.52,3.93,-4.65,6.58
21.127,2.63,5.46,-5.99,8.52
21.138,3.10,6.10,-6.17,9.21
21.147,3.18,5.08,-6.69,8.98
21.157,2.40,2.90,-7.82,8.68
21.167,0.80,0.51,-7.51,7.57
21.177,-1.04,-1.14,-8.14,8.29
21.187,-2.86,-2.16,-8.28,9.02
21.197,-5.37,-2.18,-7.23,9.27
21.207,-7.50,-0.05,-6.52,9.94
21.217,-7.92,0.88,-6.52,10.29
21.227,-7.84,0.77,-5.29,9.49
21.237,-7.88,0.94,-4.40,9.08
21.247,-7.87,0.79,-4.50,9.10
21.257,-8.55,0.46,-4.49,9.66
21.267,-9.51,0.10,-4.40,10.48
21.277,-10.50,-0.16,-4.14,11.29
21.287,-11.32,-0.73,-3.41,11.84
21.297,-11.50,-0.90,-2.20,11.75
21.307,-11.02,-0.61,-1.61,11.16
21.317,-10.56,-0.45,-1.49,10.68
21.327,-9.99,-0.61,-1.50,10.12
21.337,-9.35,-0.70,-1.52,9.50
21.347,-9.00,-0.77,-1.02,9.09
21.357,-8.85,-0.97,-0.61,8.92
21.367,-8.74,-1.03,-0.98,8.85
21.377,-8.52,-1.06,-0.85,8.62
21.387,-8.31,-1.22,0.41,8.41
21.397,-8.24,-1.32,0.88,8.39
21.407,-7.85,-1.05,1.57,8.07
21.417,-6.93,-0.05,2.65,7.42
21.427,-6.25,1.09,2.98,7.01
21.437,-6.31,1.49,2.29,6.87
21.447,-5.75,0.60,2.09,6.15
21.457,-5.44,-0.55,1.39,5.65
21.467,-5.95,-1.88,2.74,6.81
21.477,-5.27,-3.42,3.73,7.30
21.487,-4.73,-2.99,4.16,6.97
21.497,-3.81,-1.41,4.61,6.15
21.507,-2.59,-0.61,5.91,6.49
21.517,-2.21,-0.21,5.34,5.78
21.527,-2.52,-0.13,4.10,4.81
21.537,-2.73,1.35,1.66,3.47
21.547,1.22,6.01,2.59,6.66
21.557,-1.46,5.94,31.07,31.67
21.567,0.64,-1.55,12.05,12.16
21.577,0.89,-1.72,-1.52,2.46
21.587,0.17,1.29,1.48,1.97
21.597,1.74,1.88,1.01,2.75
21.607,0.92,2.10,0.24,2.30
21.617,-0.84,1.55,-1.57,2.36
21.627,-6.21,-2.21,-3.43,7.43
21.637,-5.66,-1.00,-2.83,6.40
21.647,-5.09,0.15,-1.63,5.34
21.657,-5.30,-0.78,0.19,5.36
21.666,-3.39,-0.17,0.84,3.50
21.677,-2.38,-0.65,1.51,2.89
21.687,-2.42,-1.69,1.52,3.32
21.697,-3.06,-2.80,3.87,5.68
21.707,-4.00,-3.16,5.49,7.50
21.717,-3.52,-2.63,4.13,6.03
21.727,-2.00,-2.03,1.12,3.06
21.737,-1.06,-1.63,-0.77,2.09
21.747,-0.49,-1.17,-2.00,2.37
21.757,-0.46,-0.74,-1.28,1.55
21.766,-0.81,-0.17,-0.12,0.84
21.776,-1.19,0.09,-0.33,1.24
21.786,-1.63,0.47,-0.66,1.82
21.796,-2.12,0.68,-0.98,2.43
21.806,-2.12,0.34,-1.49,2.61
21.816,-1.12,-0.19,-1.46,1.85
21.826,0.14,-1.44,-1.98,2.46
21.836,0.89,-2.45,-1.40,2.96
21.846,1.10,-2.48,-0.64,2.79
21.856,1.17,-1.94,-1.06,2.50
21.866,0.92,-1.29,-0.90,1.82
21.876,0.47,-0.97,-0.29,1.12
21.886,0.16,-0.91,-0.13,0.93
21.896,0.23,-0.80,-0.05,0.83
21.906,0.27,-0.85,0.16,0.91
21.916,0.13,-0.92,0.37,1.00
21.926,-0.04,-0.82,0.85,1.18
21.936,-0.12,-0.72,1.15,1.36
21.946,-0.18,-0.59,1.21,1.36
21.956,0.06,-0.58,1.45,1.57
21.966,0.30,-0.66,1.21,1.41
21.976,0.51,-0.31,0.63,0.87
21.986,0.63,0.22,0.01,0.67
21.996,0.38,0.57,-0.16,0.70
22.006,0.08,0.68,-0.03,0.69
22.016,-0.21,0.58,0.17,0.64
22.026,-0.37,0.32,0.48,0.69
22.036,-0.47,0.04,0.77,0.90
22.046,-0.45,-0.16,0.85,0.97
22.056,-0.18,-0.28,0.59,0.68
22.066,0.13,-0.34,0.24,0.44
22.076,0.27,-0.36,-0.03,0.46
22.086,0.23,-0.16,-0.49,0.57
22.096,0.01,0.25,-0.61,0.66
22.106,-0.24,0.39,-0.23,0.51
22.116,-0.37,0.14,0.37,0.54
22.126,-0.26,-0.46,0.83,0.98
22.136,-0.29,-0.47,0.90,1.06
22.146,-0.12,-0.31,0.81,0.88
22.156,0.29,-0.86,0.67,1.13
22.166,0.67,-1.32,0.36,1.52
22.176,0.83,-1.21,0.06,1.47
22.186,0.75,-0.94,0.29,1.24
22.196,0.68,-0.52,0.68,1.09
22.206,0.47,-0.01,1.05,1.15
22.216,0.04,-0.48,1.06,1.17
22.226,-0.82,-1.32,1.33,2.05
22.236,-0.42,-1.07,0.79,1.39
22.246,0.11,-0.62,1.42,1.55
22.256,0.29,-0.15,1.19,1.23
22.266,0.61,0.25,0.57,0.87
22.276,0.61,0.42,0.26,0.79
22.286,0.34,0.49,0.14,0.62
22.296,0.13,0.66,0.61,0.91
22.306,-0.19,0.62,0.96,1.16
22.316,-0.23,0.07,1.15,1.18
22.326,0.08,-0.19,1.29,1.31
22.336,0.56,-0.14,1.26,1.39
22.345,0.97,-0.16,0.95,1.37
22.356,1.08,-0.09,0.71,1.30
22.366,0.92,0.12,0.68,1.14
22.376,0.67,0.32,0.75,1.06
22.385,0.48,0.34,0.65,0.88
22.395,0.47,0.25,0.43,0.69
22.405,0.60,0.16,0.25,0.67
22.415,0.57,0.13,0.04,0.58
22.425,0.39,0.16,0.03,0.42
22.435,0.02,0.22,0.29,0.36
22.445,-0.28,0.18,0.64,0.72
22.455,-0.49,0.15,0.84,0.98
22.465,-0.50,0.07,0.55,0.75
22.475,-0.48,-0.02,0.45,0.65
22.485,-0.43,-0.27,0.38,0.63
22.495,-0.30,-0.33,0.12,0.46
22.505,-0.16,-0.25,-0.27,0.40
22.515,0.01,-0.22,-0.54,0.58
22.525,0.11,-0.31,-0.59,0.67
22.535,-0.04,-0.33,-0.36,0.49
22.546,-0.28,-0.40,0.01,0.49
22.555,-0.39,-0.57,0.35,0.77
22.565,-0.34,-0.68,0.46,0.89
22.575,-0.21,-0.68,0.19,0.74
22.585,-0.10,-0.70,-0.21,0.73
22.595,-0.11,-0.43,-0.49,0.66
22.605,-0.15,-0.09,-0.81,0.82
22.615,-0.16,-0.11,-0.92,0.94
22.625,-0.23,-0.11,-0.85,0.88
22.635,-0.26,-0.17,-0.44,0.54
22.645,-0.26,-0.36,-0.19,0.48
22.655,-0.28,-0.38,0.06,0.47
22.665,-0.36,-0.16,0.26,0.47
22.675,-0.40,0.05,0.18,0.44
22.685,-0.32,0.18,0.02,0.37
22.695,-0.10,0.22,-0.23,0.33
22.705,0.23,0.26,-0.65,0.74
22.715,0.40,0.31,-0.62,0.80
22.725,0.35,0.11,-0.12,0.39
22.735,0.21,-0.01,0.33,0.40
22.745,0.08,0.02,0.54,0.54
22.755,0.08,-0.02,0.41,0.42
22.765,0.10,0.00,0.29,0.31
22.775,0.06,-0.04,0.50,0.50
22.785,0.04,-0.13,0.26,0.29
22.795,0.16,0.02,0.02,0.17
22.805,0.20,0.11,0.13,0.26
22.815,0.14,0.07,0.70,0.72
22.825,0.23,-0.26,0.83,0.90
22.835,0.52,-0.26,0.82,1.00
22.845,0.67,-0.19,0.53,0.88
22.855,0.61,-0.08,0.28,0.68
22.865,0.42,0.01,0.25,0.49
22.874,-0.03,-0.06,0.83,0.84
22.885,-0.50,-0.17,1.43,1.52
22.895,-0.55,-0.01,1.22,1.34
22.905,-0.36,0.08,0.59,0.70
22.915,0.03,0.01,0.07,0.08
22.925,0.37,-0.02,-0.50,0.62
22.936,0.52,-0.05,-0.80,0.96
22.944,0.52,-0.18,-0.74,0.92
22.954,0.42,-0.29,-0.49,0.71
22.964,0.32,-0.37,-0.02,0.49
22.975,0.35,-0.40,0.24,0.58
22.984,0.43,-0.30,0.23,0.57
22.994,0.49,-0.26,0.13,0.56
23.005,0.59,-0.20,-0.29,0.69
23.014,0.82,-0.02,-0.87,1.20
23.024,0.98,0.06,-1.22,1.56
23.034,0.93,0.01,-1.26,1.56
23.044,0.71,0.03,-0.91,1.15
23.054,0.44,0.02,-0.43,0.62
23.064,0.35,-0.06,-0.11,0.37
23.074,0.25,-0.03,0.07,0.27
23.084,0.16,0.04,0.15,0.22
23.094,0.25,0.08,0.05,0.27
23.104,0.46,0.09,-0.03,0.47
23.114,0.63,0.24,-0.43,0.80
23.124,0.73,0.45,-0.72,1.12
23.134,0.84,0.46,-0.71,1.19
23.144,0.93,0.31,-0.48,1.09
23.154,0.88,0.18,-0.21,0.92
23.164,0.71,0.12,0.01,0.72
23.174,0.46,0.23,0.22,0.56
23.184,0.26,0.37,0.36,0.58
23.194,0.17,0.49,0.52,0.73
23.204,0.19,0.51,0.67,0.86
23.214,0.30,0.48,0.74,0.93
23.224,0.40,0.40,0.80,0.98
23.234,0.54,0.38,0.46,0.80
23.244,0.59,0.53,0.30,0.84
23.254,0.51,0.58,0.32,0.83
23.264,0.48,0.57,0.29,0.80
23.274,0.44,0.58,0.32,0.80
23.284,0.33,0.72,0.37,0.87
23.294,0.19,0.82,0.28,0.89
23.304,0.20,0.76,0.11,0.79
23.314,0.30,0.66,0.11,0.73
23.324,0.39,0.40,0.24,0.61
23.334,0.51,0.09,0.32,0.61
23.344,0.58,-0.01,0.18,0.61
23.354,0.58,0.02,0.20,0.62
23.364,0.57,-0.01,0.21,0.60
23.374,0.61,0.02,0.06,0.61
23.384,0.66,0.12,-0.17,0.69
23.394,0.67,0.05,-0.30,0.73
23.404,0.68,-0.08,-0.26,0.73
23.414,0.70,-0.21,-0.30,0.79
23.424,0.65,-0.22,-0.22,0.73
23.434,0.49,-0.07,-0.09,0.50
23.444,0.23,0.14,0.04,0.27
23.454,0.02,0.25,0.13,0.28
23.464,-0.08,0.32,0.08,0.34
23.474,-0.07,0.39,-0.05,0.40
23.484,0.00,0.26,-0.12,0.29
23.494,0.08,0.21,-0.27,0.35
23.504,0.17,0.26,-0.41,0.52
23.514,0.26,0.25,-0.45,0.57
23.523,0.32,0.21,-0.42,0.57
23.534,0.37,0.16,-0.41,0.57
23.544,0.36,0.11,-0.30,0.48
23.554,0.28,0.11,-0.12,0.32
23.563,0.25,0.12,-0.04,0.28
23.573,0.25,0.10,-0.07,0.27
23.583,0.30,0.10,-0.20,0.37
23.594,0.36,0.07,-0.32,0.49
23.604,0.41,0.07,-0.38,0.57
23.614,0.41,0.08,-0.38,0.57
23.624,0.37,0.05,-0.33,0.50
23.633,0.39,0.03,-0.31,0.50
23.643,0.40,0.05,-0.33,0.52
23.653,0.32,0.11,-0.27,0.44
23.663,0.20,0.14,-0.14,0.28
23.673,0.11,0.15,-0.06,0.20
23.683,0.09,0.12,-0.05,0.16
23.693,0.15,0.09,-0.09,0.20
23.703,0.21,0.06,-0.12,0.25
23.714,0.27,0.07,-0.18,0.33
23.723,0.30,0.08,-0.18,0.36
23.733,0.31,0.09,-0.17,0.36
23.743,0.28,0.14,-0.13,0.34
23.753,0.23,0.16,-0.08,0.29
23.763,0.14,0.08,0.07,0.18
23.773,0.02,0.04,0.17,0.18
23.783,-0.04,0.01,0.15,0.16
23.793,-0.05,-0.05,0.15,0.17
23.803,-0.07,-0.08,0.09,0.13
23.813,-0.07,-0.04,0.00,0.08
23.823,-0.02,-0.01,-0.06,0.07
23.833,0.04,-0.00,-0.09,0.09
23.843,0.09,-0.06,-0.06,0.12
23.853,0.11,-0.10,0.01,0.15
23.863,0.17,-0.13,0.19,0.28
23.873,0.27,-0.14,0.29,0.42
23.883,0.31,-0.04,0.31,0.44
23.893,0.34,0.10,-0.27,0.44
23.903,0.24,0.50,-1.35,1.46
23.913,-0.07,0.05,-0.27,0.28
23.923,-0.35,-0.42,0.78,0.95
23.933,-0.42,-0.23,1.52,1.59
23.943,-0.39,-0.04,1.37,1.43
23.953,-0.38,0.15,1.31,1.37
23.963,-0.30,0.17,0.93,1.00
23.973,-0.04,0.07,0.25,0.26
23.983,0.44,0.06,-0.26,0.51
