time,ax,ay,az,atotal
0.000,-0.78,-0.44,-0.50,1.03
0.010,-0.27,-0.42,-0.50,0.71
0.020,0.11,-0.51,-0.83,0.98
0.030,0.57,-0.38,-1.16,1.34
0.040,0.94,-0.22,-1.28,1.60
0.050,1.04,0.01,-1.01,1.45
0.060,0.62,0.35,-0.21,0.74
0.070,-0.01,0.24,0.73,0.77
0.080,-0.19,0.21,0.61,0.67
0.090,-0.19,0.43,-0.06,0.47
0.100,-0.33,-0.18,0.36,0.52
0.110,-0.33,-0.37,0.62,0.79
0.120,-0.04,-0.63,0.95,1.14
0.130,0.06,-0.83,1.49,1.70
0.140,-0.32,-0.80,2.53,2.67
0.150,-0.91,-0.96,3.51,3.75
0.160,-1.60,-1.39,4.36,4.85
0.170,-1.89,-2.28,4.18,5.12
0.180,-1.77,-3.10,3.74,5.17
0.190,-1.45,-3.65,3.75,5.43
0.200,-1.17,-3.73,3.37,5.16
0.210,-0.79,-3.27,3.11,4.58
0.220,-0.31,-2.69,2.42,3.63
0.230,0.25,-2.43,1.72,2.99
0.240,0.89,-2.51,1.08,2.87
0.249,1.52,-2.15,0.21,2.64
0.260,1.62,-0.35,0.15,1.67
0.270,1.04,0.32,0.10,1.09
0.280,0.77,3.23,-0.16,3.32
0.290,0.90,1.70,-1.10,2.21
0.300,0.85,0.23,-0.86,1.23
0.309,0.65,-0.71,-0.26,1.00
0.319,0.40,-1.53,0.17,1.59
0.329,0.16,-1.90,-0.11,1.91
0.339,-0.16,-2.79,-1.89,3.37
0.349,-0.42,-4.40,-3.28,5.51
0.359,-0.16,-4.84,-2.93,5.66
0.369,-0.51,-3.91,-1.47,4.21
0.380,-1.20,-2.81,0.10,3.06
0.390,-0.95,-1.35,1.70,2.37
0.399,0.10,1.45,2.13,2.58
0.409,0.63,5.23,1.58,5.50
0.419,-0.54,4.70,0.53,4.76
0.430,-1.67,1.61,0.31,2.34
0.439,-1.46,-0.28,-0.14,1.50
0.449,-1.18,-0.68,0.52,1.45
0.459,-1.22,-0.57,0.75,1.54
0.469,-0.92,-0.90,0.25,1.31
0.480,-0.19,-0.15,-0.08,0.25
0.489,0.48,0.64,-0.27,0.84
0.499,1.03,1.20,-0.00,1.58
0.509,0.31,1.05,0.64,1.27
0.519,-0.68,-0.68,-0.39,1.04
0.529,-1.36,-0.82,-2.24,2.75
0.539,-1.53,0.45,1.44,2.15
0.549,-1.08,0.74,0.98,1.64
0.559,-1.45,0.89,1.91,2.56
0.569,-1.90,0.44,3.89,4.35
0.580,-2.37,-0.28,5.34,5.85
0.589,-2.69,-0.73,6.10,6.71
0.599,-2.42,-0.66,5.74,6.27
0.609,-2.33,-0.75,6.49,6.94
0.619,-2.13,-0.78,6.63,7.01
0.629,-1.66,0.20,5.00,5.27
0.639,-2.38,2.34,4.60,5.68
0.649,-4.39,4.37,4.21,7.49
0.659,-6.56,5.94,4.43,9.90
0.669,-7.66,6.77,5.06,11.40
0.679,-7.73,6.34,5.05,11.20
0.689,-7.43,6.01,3.59,10.20
0.699,-6.81,6.52,2.57,9.77
0.709,-5.85,6.95,1.49,9.21
0.719,-4.97,7.44,-0.43,8.96
0.729,-4.74,7.98,-1.78,9.45
0.739,-4.71,7.71,-3.25,9.61
0.749,-4.72,7.17,-3.76,9.37
0.759,-3.58,6.70,-2.94,8.15
0.769,-1.95,5.76,-3.10,6.82
0.779,-0.30,4.91,-3.80,6.22
0.789,1.49,4.47,-4.41,6.45
0.799,2.60,3.81,-5.09,6.87
0.809,3.78,3.21,-5.78,7.61
0.819,5.44,2.83,-6.08,8.63
0.829,7.35,3.16,-6.13,10.08
0.839,7.02,1.39,-7.62,10.46
0.849,5.74,-0.80,-5.66,8.10
0.858,5.53,-1.48,-5.46,7.91
0.869,5.51,-0.75,-7.77,9.56
0.879,5.97,1.48,-9.69,11.48
0.889,6.14,3.16,-10.43,12.51
0.899,6.40,4.06,-10.19,12.70
0.908,7.11,4.00,-9.80,12.75
0.919,7.17,2.67,-8.19,11.20
0.929,7.31,1.78,-5.96,9.60
0.939,7.98,1.56,-4.08,9.10
0.949,8.38,1.04,-3.11,9.00
0.958,8.52,0.54,-2.79,8.98
0.969,9.04,0.14,-2.25,9.31
0.979,9.48,0.02,-3.78,10.21
0.988,9.32,0.98,-2.64,9.74
0.998,9.23,1.89,-0.90,9.47
1.008,9.16,1.85,-0.28,9.35
1.018,8.47,-0.65,6.20,10.52
1.028,6.22,-9.17,0.65,11.10
1.038,5.62,-10.83,2.91,12.55
1.048,5.99,-5.47,5.82,9.99
1.058,5.01,-1.43,7.31,8.97
1.068,3.70,0.42,6.82,7.77
1.078,1.43,0.58,6.18,6.37
1.088,0.70,3.94,4.42,5.96
1.098,0.97,5.96,0.99,6.11
1.108,-0.33,3.87,1.64,4.22
1.118,-1.28,2.02,2.30,3.31
1.128,-1.70,0.64,0.48,1.88
1.138,-2.32,-0.27,-1.52,2.79
1.148,-1.86,0.42,-2.68,3.29
1.158,-0.77,0.75,-3.54,3.70
1.168,-0.88,-0.74,-2.37,2.63
1.178,-0.14,-3.48,-0.98,3.62
1.188,1.88,-4.47,-2.22,5.33
1.198,3.21,-2.86,-3.52,5.55
1.208,2.29,-4.01,-3.46,5.77
1.218,0.86,-5.14,-2.78,5.91
1.228,0.40,-4.58,-2.89,5.43
1.238,-0.63,-5.14,-2.79,5.88
1.248,-1.06,-4.75,-1.35,5.05
1.258,-0.73,-1.86,1.06,2.26
1.268,0.05,-0.09,1.71,1.72
1.278,0.53,0.45,3.13,3.20
1.288,1.52,0.88,3.01,3.49
1.298,2.05,0.71,2.92,3.64
1.308,1.60,0.16,2.54,3.00
1.318,0.76,0.25,1.29,1.52
1.328,0.08,0.85,0.31,0.91
1.338,-0.22,1.77,0.72,1.93
1.348,0.22,2.85,1.71,3.33
1.358,1.32,4.41,1.53,4.85
1.368,1.07,4.05,1.79,4.56
1.378,1.05,2.96,1.27,3.39
1.388,-0.21,0.72,0.47,0.88
1.398,-1.78,-0.74,0.68,2.04
1.408,-1.24,0.09,0.43,1.32
1.418,-1.89,-0.25,-2.33,3.01
1.428,-4.54,-4.82,-2.44,7.06
1.438,-3.62,-2.80,-0.51,4.60
1.448,-3.31,-3.64,-1.06,5.03
1.458,-2.88,-4.83,-0.08,5.62
1.468,-2.22,-5.83,0.58,6.27
1.478,-0.65,-3.80,0.91,3.96
1.488,1.39,-0.09,0.67,1.55
1.498,2.34,0.71,-0.32,2.47
1.507,1.87,-0.09,-0.92,2.08
1.518,1.14,-0.03,-1.37,1.78
1.528,-0.17,0.21,-0.56,0.63
1.538,-1.49,0.46,1.72,2.32
1.548,-1.44,1.22,2.14,2.85
1.557,-1.13,1.79,2.08,2.97
1.568,-0.79,2.36,1.88,3.12
1.578,0.67,2.57,0.42,2.69
1.588,2.00,1.78,-0.02,2.68
1.598,2.65,1.46,0.27,3.04
1.608,2.28,0.93,0.13,2.47
1.617,1.15,0.20,-0.06,1.17
1.628,0.01,-0.31,-0.24,0.39
1.637,-1.02,-0.92,-1.32,1.90
1.647,-1.80,-1.03,-1.64,2.64
1.657,-2.01,-0.15,-0.09,2.02
1.667,-1.31,0.01,-0.73,1.50
1.677,-0.31,-0.06,-2.33,2.36
1.687,0.35,-0.09,-3.10,3.12
1.697,0.58,-0.34,-2.56,2.64
1.707,0.26,-0.92,-1.62,1.88
1.717,-0.15,-1.37,-0.66,1.53
1.727,-0.53,-0.92,0.41,1.13
1.737,-1.38,-0.38,0.46,1.50
1.747,-2.44,-0.09,-0.20,2.45
1.757,-2.97,0.45,-0.34,3.02
1.767,-2.61,1.26,-0.30,2.92
1.777,-1.70,1.39,-0.13,2.20
1.787,-0.57,1.10,1.01,1.60
1.797,0.54,0.43,2.80,2.89
1.807,1.22,0.09,3.60,3.80
1.817,0.99,0.33,3.21,3.38
1.827,-0.15,0.49,2.92,2.96
1.837,-1.11,0.50,2.35,2.65
1.847,-1.72,0.20,1.83,2.52
1.857,-2.23,-0.61,1.63,2.83
1.867,-3.59,-2.98,1.08,4.79
1.877,-3.47,-5.21,1.97,6.56
1.887,-0.32,-3.90,1.20,4.09
1.897,1.22,-2.88,1.41,3.43
1.907,2.25,-2.40,1.24,3.52
1.917,3.38,-1.41,0.95,3.79
1.927,3.80,-0.61,-0.10,3.85
1.937,3.25,-0.78,-1.69,3.75
1.947,2.21,-2.34,-2.95,4.37
1.957,1.09,-3.47,-3.03,4.74
1.967,0.35,-3.95,-2.74,4.82
1.977,0.24,-3.05,-2.01,3.66
1.987,0.03,-2.64,-1.41,3.00
1.997,0.02,-2.05,-1.90,2.80
2.007,-0.23,-0.91,-2.20,2.39
2.017,-1.18,-0.55,-2.22,2.57
2.027,-1.67,0.15,-1.86,2.51
2.037,-1.38,1.41,-0.98,2.20
2.047,0.07,3.05,-1.31,3.32
2.057,-0.54,2.61,0.87,2.81
2.067,0.52,3.52,2.76,4.50
2.077,1.44,3.49,2.58,4.57
2.087,1.01,2.41,3.87,4.67
2.097,1.12,2.34,3.80,4.60
2.107,1.86,2.61,3.38,4.66
2.117,2.76,2.74,1.75,4.26
2.127,3.45,2.69,-0.53,4.41
2.137,3.26,1.94,-1.60,4.12
2.147,3.22,1.19,-1.83,3.89
2.157,4.42,1.78,-0.88,4.84
2.167,5.26,1.79,0.33,5.57
2.177,4.59,0.57,0.72,4.68
2.187,2.73,-0.16,0.63,2.80
2.197,0.90,0.43,0.67,1.20
2.207,-0.58,1.37,0.54,1.58
2.217,-1.32,2.47,0.17,2.81
2.226,-0.51,3.16,0.23,3.21
2.236,1.07,2.71,0.31,2.93
2.246,1.40,1.47,-0.20,2.04
2.256,1.04,0.78,-0.07,1.30
2.267,0.91,0.90,0.38,1.33
2.277,0.68,0.56,0.14,0.90
2.287,-0.63,-0.34,-0.44,0.84
2.296,-1.52,-0.73,-1.08,2.00
2.307,-2.20,-1.57,-1.23,2.97
2.316,-2.40,-2.12,-0.20,3.21
2.326,-2.07,-2.59,0.51,3.36
2.336,-1.93,-2.89,0.39,3.50
2.346,-2.39,-3.03,-0.34,3.88
2.357,-1.92,-2.16,0.64,2.96
2.366,-0.83,-0.95,0.16,1.28
2.376,-1.09,-0.53,0.67,1.38
2.386,-1.24,-0.53,0.85,1.59
2.396,-0.76,-0.83,-0.27,1.16
2.407,-0.28,-1.06,-0.62,1.26
2.416,0.17,-1.30,-0.86,1.57
2.426,0.35,-1.74,-1.48,2.31
2.436,0.37,-1.74,-1.43,2.28
2.446,0.71,-0.60,-1.46,1.73
2.456,1.36,1.27,-1.88,2.64
2.466,0.65,1.50,-1.91,2.52
2.476,-1.34,-1.07,-0.85,1.92
2.486,-0.49,0.79,0.74,1.19
2.496,-0.28,2.28,1.53,2.76
2.506,-1.15,1.24,2.56,3.06
2.516,-1.87,-0.47,3.20,3.74
2.526,-1.33,-0.03,2.63,2.95
2.536,-0.70,0.79,1.53,1.86
2.546,-0.34,0.90,-0.13,0.97
2.556,0.07,0.43,-1.10,1.18
2.566,0.80,-0.00,-0.91,1.21
2.576,1.20,-0.42,-0.94,1.58
2.586,0.66,-1.99,-0.70,2.20
2.596,0.46,-2.22,-0.42,2.31
2.606,0.57,-1.18,-0.74,1.50
2.616,0.52,0.44,-0.26,0.73
2.626,0.38,2.12,-0.26,2.17
2.636,4.01,7.91,-0.07,8.87
2.646,-1.57,0.08,-2.65,3.08
2.656,-3.62,-5.39,-1.01,6.57
2.666,-1.56,-2.92,0.44,3.34
2.676,-0.65,-1.30,0.31,1.48
2.686,-0.22,-1.19,0.76,1.43
2.696,0.79,-0.42,2.46,2.61
2.706,1.29,-0.07,3.45,3.68
2.716,0.99,-0.61,3.64,3.82
2.726,0.49,-1.63,4.04,4.38
2.736,0.16,-2.65,3.71,4.56
2.746,-0.25,-3.56,2.61,4.42
2.756,-0.44,-3.04,1.28,3.33
2.766,-0.81,-1.97,0.72,2.25
2.776,-1.07,-0.74,-0.59,1.43
2.786,-1.05,0.40,-1.12,1.58
2.796,-0.55,1.77,-1.37,2.30
2.806,0.13,2.53,-2.32,3.43
2.816,0.93,2.82,-3.74,4.77
2.826,1.15,2.23,-3.79,4.55
2.836,0.71,1.32,-3.57,3.87
2.846,0.15,1.35,-3.00,3.29
2.856,0.53,2.59,-2.14,3.40
2.866,0.60,2.08,-1.54,2.66
2.875,0.87,1.91,1.18,2.41
2.886,1.11,1.80,2.37,3.18
2.896,0.51,0.44,3.35,3.41
2.906,-0.18,-0.30,2.75,2.78
2.915,-1.19,-1.62,2.02,2.85
2.925,-0.69,0.27,0.88,1.15
2.935,-1.55,-2.13,-0.18,2.64
2.946,-1.18,-2.77,-1.12,3.21
2.955,-0.87,-2.31,-1.44,2.86
2.965,0.23,-1.00,-2.04,2.28
2.975,0.32,-0.98,-2.53,2.73
2.985,0.92,0.52,-2.74,2.94
2.996,-1.62,-1.96,-2.82,3.80
3.005,-2.00,-0.01,-1.13,2.29
3.015,-0.83,1.84,-0.74,2.14
3.025,-1.39,-0.89,0.70,1.80
3.035,-0.05,0.85,2.39,2.53
3.045,0.86,1.87,3.02,3.65
3.055,1.09,1.94,2.79,3.57
3.065,0.58,1.32,2.53,2.91
3.075,0.47,1.05,2.53,2.78
3.085,2.30,2.84,1.52,3.96
3.095,-1.02,-2.98,-0.78,3.25
3.105,-0.29,-1.79,0.07,1.81
3.115,1.37,0.54,-0.94,1.75
3.125,2.16,1.17,-1.39,2.82
3.135,1.68,0.09,-0.53,1.77
3.145,0.40,-1.21,0.09,1.28
3.155,-1.15,-1.85,-0.17,2.18
3.165,-2.64,-2.08,-1.28,3.60
3.175,-3.02,-1.33,-1.12,3.49
3.185,-2.55,-1.59,-1.76,3.48
3.195,-2.08,-2.53,-0.79,3.37
3.205,-1.52,-2.77,0.72,3.24
3.215,-0.89,-2.46,1.25,2.90
3.225,-0.41,-1.19,2.47,2.77
3.235,0.13,0.34,2.97,2.99
3.245,0.76,1.37,1.73,2.33
3.255,1.42,1.50,-0.04,2.06
3.265,1.61,0.49,-1.54,2.28
3.275,1.50,0.13,-2.05,2.54
3.285,1.08,0.02,-1.26,1.66
3.295,0.78,0.21,-1.04,1.32
3.305,0.69,0.70,-0.73,1.22
3.315,0.31,0.86,0.50,1.05
3.325,-0.35,0.65,1.58,1.74
3.335,-0.96,0.00,1.47,1.75
3.345,-1.71,-0.75,1.29,2.27
3.355,-2.18,-1.09,0.17,2.44
3.365,-2.82,-1.88,-1.23,3.60
3.375,-3.13,-2.37,-1.70,4.28
3.385,-2.14,-0.77,-1.77,2.88
3.395,-0.59,1.54,-1.89,2.50
3.405,0.20,2.22,-2.52,3.36
3.415,0.23,2.36,-1.35,2.73
3.425,0.96,2.33,-1.35,2.86
3.435,1.73,0.44,-1.87,2.59
3.445,2.50,-1.26,-2.01,3.44
3.455,2.98,-1.76,-1.52,3.78
3.465,2.73,-1.30,0.16,3.03
3.474,2.47,-0.41,1.90,3.14
3.485,2.13,-0.27,2.57,3.35
3.495,1.32,-0.78,2.21,2.69
3.504,1.11,-1.01,1.58,2.18
3.515,1.18,-1.10,0.03,1.61
3.525,0.86,-0.60,0.14,1.06
3.535,0.87,0.11,-0.63,1.08
3.545,-0.07,1.74,-0.32,1.77
3.555,-0.76,3.27,-1.58,3.71
3.565,-0.48,2.96,-3.92,4.93
3.574,-0.02,1.89,-3.45,3.93
3.585,0.54,0.55,-1.67,1.83
3.594,0.62,-0.59,-0.29,0.90
3.605,0.21,-0.72,1.28,1.48
3.615,0.35,-1.11,1.35,1.78
3.624,0.18,-1.59,0.96,1.87
3.634,0.37,-1.81,-0.11,1.85
3.644,0.88,-1.85,-0.10,2.05
3.654,-0.69,-1.24,3.56,3.83
3.664,-2.07,-1.91,4.36,5.19
3.674,-1.28,-2.67,3.27,4.41
3.684,-0.79,-2.66,2.56,3.78
3.695,-0.78,-2.50,1.02,2.81
3.704,-0.37,-0.68,-0.32,0.84
3.714,-0.51,-0.53,-0.15,0.75
3.724,-0.05,-1.40,-0.05,1.40
3.734,-0.01,-1.69,0.13,1.69
3.744,-0.61,-2.32,0.49,2.45
3.754,-0.76,-2.28,-0.09,2.41
3.764,0.14,-0.49,-1.94,2.01
3.774,1.06,2.68,-3.25,4.34
3.784,1.05,3.83,-3.93,5.59
3.794,0.21,3.72,-2.21,4.33
3.804,-0.07,2.11,0.59,2.19
3.814,0.23,0.09,2.51,2.52
3.824,0.53,0.92,2.23,2.47
3.834,0.92,0.57,0.60,1.24
3.844,1.02,-0.89,0.08,1.36
3.854,0.73,-0.59,0.00,0.94
3.864,0.15,0.29,-0.79,0.85
3.874,-0.11,0.05,-1.61,1.62
3.884,-0.38,0.19,-1.59,1.64
3.894,-0.10,0.02,-1.94,1.94
3.904,-0.07,-0.51,-2.84,2.89
3.914,0.56,-1.64,-2.45,3.00
3.924,1.27,-2.12,-0.37,2.50
3.934,1.79,-1.41,0.81,2.42
3.944,1.76,-1.35,1.11,2.49
3.954,0.95,-0.73,0.97,1.54
3.964,0.23,0.96,-0.45,1.09
3.974,-0.11,1.22,-0.75,1.43
3.984,-0.20,0.58,-0.88,1.08
3.994,-0.40,1.69,-1.59,2.36
4.004,-0.27,1.89,-2.15,2.88
4.014,0.08,0.50,-1.68,1.76
4.024,0.45,0.61,-0.47,0.89
4.034,0.48,1.20,0.07,1.29
4.044,0.22,1.36,-0.17,1.39
4.054,0.39,1.57,-0.44,1.67
4.064,0.78,1.69,-0.84,2.04
4.074,0.92,1.47,-0.45,1.80
4.084,0.76,1.34,0.11,1.55
4.094,0.75,0.83,0.45,1.20
4.104,0.25,0.38,0.74,0.87
4.114,0.13,0.26,0.38,0.48
4.124,0.53,-0.31,0.04,0.61
4.134,1.10,-0.20,-0.38,1.18
4.143,1.84,-0.19,-0.61,1.95
4.154,1.49,-0.08,-0.44,1.56
4.164,1.03,0.03,-0.40,1.11
4.174,0.56,-0.12,-0.41,0.70
4.184,0.75,-0.28,0.13,0.81
4.194,1.53,-0.48,0.36,1.65
4.204,1.97,-0.36,-0.06,2.00
4.214,2.01,-0.32,-0.54,2.10
4.223,1.79,-0.44,-0.69,1.97
4.233,1.59,-0.54,-0.82,1.86
4.243,1.43,-1.12,-0.65,1.93
4.254,1.98,-1.88,0.04,2.73
4.263,2.11,-1.79,0.20,2.77
4.273,2.25,-1.86,0.47,2.96
4.283,1.34,-1.01,-0.18,1.69
4.293,-0.56,-0.13,-1.34,1.45
4.303,-0.18,-0.45,-1.81,1.88
4.314,0.70,0.12,-1.26,1.45
4.323,1.42,0.67,-1.10,1.92
4.335,1.66,0.65,-0.61,1.88
4.343,1.23,0.55,-0.47,1.42
4.353,0.54,0.72,-0.78,1.19
4.363,0.51,0.49,-0.48,0.85
4.373,0.97,-0.02,0.03,0.97
4.383,1.46,-0.52,0.33,1.58
4.393,2.18,-0.39,0.70,2.33
4.403,2.56,-0.38,0.90,2.74
4.413,1.59,-0.51,0.20,1.68
4.423,0.32,-0.22,-0.35,0.52
4.433,0.01,-0.31,-0.36,0.48
4.443,-1.84,-1.43,0.43,2.37
4.453,-5.58,-3.01,5.46,8.36
4.463,2.66,3.85,3.22,5.68
4.473,5.11,-3.03,5.29,7.95
4.483,2.28,-3.66,2.03,4.77
4.493,1.05,0.09,-1.89,2.16
4.503,0.42,1.57,-3.11,3.51
4.513,-0.87,1.59,-6.07,6.34
4.523,0.05,1.13,-8.07,8.14
4.533,2.09,0.23,-6.07,6.42
4.543,2.03,0.17,-2.66,3.35
4.553,2.04,-1.21,-0.78,2.50
4.563,1.97,-1.28,-2.01,3.09
4.573,1.55,-0.84,-1.83,2.55
4.583,1.42,-1.87,0.48,2.39
4.593,1.01,-1.99,1.31,2.58
4.603,0.86,-1.55,1.03,2.05
4.613,0.52,-0.80,0.77,1.23
4.623,0.60,-0.54,1.71,1.89
4.633,0.32,0.14,1.64,1.68
4.643,0.24,1.25,0.87,1.54
4.653,0.14,2.26,0.17,2.27
4.663,-0.60,3.32,-1.83,3.83
4.673,-1.12,2.69,-1.11,3.12
4.683,-1.09,1.77,0.01,2.08
4.693,-0.62,1.85,0.86,2.13
4.703,-0.40,2.76,1.24,3.05
4.713,0.21,2.18,0.16,2.20
4.723,-0.01,1.51,0.18,1.53
4.733,0.76,1.04,-0.19,1.30
4.743,1.26,0.77,-0.55,1.58
4.753,0.82,0.74,-0.01,1.11
4.763,0.20,0.20,-0.37,0.47
4.773,0.07,-0.01,-1.16,1.17
4.783,0.01,-0.99,-0.73,1.23
4.793,0.19,-1.85,-2.24,2.91
4.803,-0.28,-0.64,-0.95,1.18
4.813,-0.69,-0.63,0.66,1.14
4.823,-1.39,-0.98,0.03,1.70
4.833,-2.17,-1.16,-0.86,2.60
4.842,-3.33,-1.90,-1.47,4.10
4.853,-3.94,-3.20,-1.63,5.33
4.863,-4.12,-3.45,-2.89,6.10
4.873,-3.71,-2.56,-1.31,4.69
4.882,-3.21,-1.27,0.23,3.46
4.892,-2.13,0.60,1.57,2.71
4.902,-1.44,2.55,1.85,3.46
4.913,-1.28,2.27,1.23,2.88
4.923,-5.17,-4.60,-4.22,8.11
4.932,-6.01,-2.88,-0.77,6.71
4.942,-1.29,1.54,3.88,4.37
4.952,-0.26,0.11,0.84,0.89
4.963,1.47,-4.51,0.70,4.80
4.973,0.21,-0.64,1.94,2.05
4.982,-0.02,1.99,0.59,2.08
4.992,0.21,1.01,-1.31,1.66
5.002,0.21,1.06,-1.66,1.98
5.012,0.06,0.78,-2.01,2.15
5.022,-0.60,0.99,-2.29,2.57
5.032,-0.89,-0.03,-2.72,2.87
5.042,-0.65,-0.02,-2.39,2.48
5.052,-0.85,0.72,-2.28,2.54
5.062,-0.36,-0.03,-1.98,2.02
5.072,-0.07,0.42,-2.00,2.05
5.082,0.19,1.09,-2.47,2.70
5.092,0.74,0.88,-2.65,2.89
5.102,1.33,0.07,-2.18,2.56
5.112,1.15,-0.21,-1.46,1.87
5.122,1.03,-0.95,-0.99,1.71
5.132,0.92,-2.08,-0.68,2.37
5.142,0.28,-1.53,-0.08,1.56
5.152,-1.01,-1.27,0.36,1.66
5.162,-0.42,0.77,-0.60,1.06
5.172,0.41,1.81,-1.35,2.29
5.182,0.57,0.48,-1.29,1.49
5.192,0.77,-0.40,-1.38,1.63
5.202,0.81,-0.44,-1.75,1.98
5.212,0.50,-1.16,-1.71,2.12
5.222,0.14,-0.82,-1.56,1.77
5.232,0.11,0.70,-1.76,1.89
5.242,0.10,0.16,-1.83,1.84
5.252,-0.04,-0.26,-1.48,1.51
5.262,-0.55,0.98,-1.53,1.90
5.272,-0.23,0.78,-1.82,2.00
5.282,0.39,1.02,-1.48,1.84
5.292,0.58,2.47,-1.81,3.12
5.302,0.73,2.59,-2.58,3.73
5.312,0.93,2.95,-3.00,4.31
5.322,0.84,2.31,-3.03,3.90
5.332,0.73,2.38,-2.77,3.73
5.342,0.50,2.12,-2.42,3.26
5.352,0.20,1.54,-2.33,2.80
5.362,0.22,0.94,-2.16,2.37
5.372,0.98,1.23,-1.91,2.47
5.382,1.61,1.62,-1.91,2.98
5.392,2.31,2.39,-1.73,3.74
5.402,2.70,2.82,-1.89,4.34
5.412,3.03,2.62,-1.38,4.24
5.422,3.24,0.65,-1.01,3.45
5.432,3.34,-0.11,-0.37,3.36
5.442,3.17,-0.59,-0.50,3.26
5.452,2.43,-0.13,-1.20,2.71
5.462,0.53,5.57,-2.69,6.21
5.472,-0.64,2.13,-2.92,3.67
5.482,-0.28,-2.72,-1.34,3.04
5.491,-1.08,-1.62,-0.98,2.18
5.501,-2.12,-0.00,-0.54,2.19
5.512,-2.52,-0.43,0.56,2.62
5.522,-2.56,-1.08,1.45,3.14
5.532,-2.42,-1.47,1.98,3.45
5.541,-2.20,-0.49,2.13,3.10
5.551,-1.62,0.80,1.89,2.62
5.562,-0.61,1.30,1.01,1.76
5.572,0.50,1.44,0.44,1.58
5.581,1.26,0.38,0.78,1.53
5.591,2.09,0.53,1.48,2.62
5.602,2.88,1.86,1.89,3.91
5.612,3.05,2.97,2.16,4.78
5.621,2.58,3.07,2.18,4.56
5.632,1.97,2.35,1.87,3.59
5.641,1.53,0.93,1.16,2.13
5.651,1.92,0.52,0.88,2.18
5.661,2.29,0.79,0.39,2.45
5.672,2.41,0.54,0.15,2.48
5.681,2.16,-0.21,0.00,2.17
5.691,1.85,-0.76,-0.29,2.02
5.701,1.58,-1.10,-0.42,1.97
5.711,1.34,-1.40,-0.57,2.02
5.721,1.14,-1.98,-0.50,2.34
5.731,0.92,-2.36,-0.38,2.56
5.741,0.78,-2.25,-0.23,2.39
5.751,0.47,-1.84,0.21,1.91
5.761,0.01,-1.66,0.63,1.77
5.771,-0.31,-1.83,0.79,2.02
5.781,-0.41,-1.96,0.79,2.15
5.791,-0.32,-2.04,0.80,2.21
5.801,0.00,-2.39,0.76,2.51
5.811,0.27,-3.09,0.61,3.16
5.821,0.66,-4.10,0.53,4.18
5.831,0.73,-4.92,0.47,5.00
5.841,0.68,-5.41,0.18,5.46
5.851,0.25,-6.40,-0.25,6.41
5.861,-0.56,-5.79,-0.81,5.87
5.871,-1.54,-5.05,-1.75,5.56
5.881,0.05,-3.18,-1.62,3.57
5.891,1.15,0.48,-1.57,2.01
5.901,1.02,3.00,-2.02,3.75
5.911,0.33,5.53,-2.91,6.26
5.921,0.25,7.32,-4.64,8.67
5.931,0.74,6.04,-5.69,8.33
5.941,1.50,4.56,-5.06,6.97
5.951,2.76,3.67,-4.16,6.19
5.961,3.94,3.01,-3.10,5.84
5.971,4.77,3.39,-2.08,6.21
5.981,4.54,3.85,-1.21,6.07
5.991,3.16,4.02,-0.72,5.17
6.001,1.52,5.30,-0.41,5.53
6.011,0.40,9.10,-0.87,9.15
6.022,-0.25,12.32,-1.77,12.45
6.031,-0.97,12.16,-2.11,12.38
6.041,-2.43,6.80,0.29,7.23
6.051,-3.27,1.85,3.00,4.81
6.061,-3.10,-0.98,4.55,5.59
6.071,-2.89,-2.14,5.53,6.60
6.081,-2.60,-2.23,5.35,6.35
6.091,-2.38,-2.45,4.31,5.50
6.101,-2.05,-2.87,3.06,4.67
6.111,-1.33,-2.97,1.83,3.73
6.121,-0.81,-2.71,1.04,3.01
6.131,-1.13,-2.15,0.69,2.52
6.140,-2.07,-1.10,0.88,2.50
6.151,-3.07,-0.17,1.58,3.45
6.161,-3.60,0.70,1.58,3.99
6.171,-3.23,1.38,0.46,3.54
6.181,-2.28,1.34,-0.42,2.68
6.190,-1.65,0.69,-0.40,1.83
6.201,-1.37,-0.59,-0.40,1.55
6.210,-1.67,-2.25,-0.49,2.84
6.220,-2.07,-3.82,-0.96,4.45
6.231,-2.32,-5.07,-1.29,5.72
6.240,-2.49,-5.62,-1.47,6.32
6.250,-2.66,-5.47,-1.54,6.27
6.260,-2.61,-4.45,-1.56,5.39
6.270,-2.49,-2.71,-1.10,3.84
6.280,-2.32,-0.77,-0.36,2.47
6.290,-2.21,0.90,0.31,2.40
6.300,-2.01,1.59,0.61,2.64
6.310,-1.76,1.02,0.68,2.15
6.320,-1.51,-0.01,0.74,1.68
6.330,-1.20,-0.60,0.48,1.43
6.340,-0.78,-0.72,-0.08,1.07
6.350,-0.49,-1.01,-0.74,1.34
6.360,-0.38,-1.53,-1.62,2.26
6.370,-0.14,-1.94,-2.50,3.17
6.380,0.27,-2.01,-3.36,3.92
6.390,0.91,-1.73,-3.92,4.38
6.400,1.46,-1.34,-4.11,4.56
6.410,1.89,-0.69,-4.16,4.62
6.420,2.30,-0.05,-4.25,4.83
6.430,2.58,0.29,-4.36,5.08
6.440,2.73,0.63,-4.46,5.26
6.450,2.94,1.15,-4.49,5.49
6.460,3.93,1.55,-4.20,5.96
6.470,5.09,1.60,-3.72,6.50
6.480,5.83,1.23,-3.67,7.00
6.490,6.07,0.97,-3.89,7.28
6.500,5.75,1.27,-3.84,7.03
6.510,5.01,0.95,-3.51,6.19
6.520,4.11,-0.51,-2.85,5.03
6.530,3.53,-1.79,-2.15,4.50
6.540,3.67,-1.69,-1.16,4.20
6.550,2.96,-0.42,-0.38,3.01
6.560,2.31,0.46,-1.00,2.56
6.570,1.28,0.28,-1.59,2.06
6.580,-0.09,-0.09,-1.17,1.18
6.590,-1.27,0.09,-0.16,1.29
6.600,-2.29,0.68,0.88,2.54
6.610,-3.50,1.16,1.98,4.19
6.620,-5.25,1.30,3.20,6.28
6.630,-6.63,2.09,3.67,7.86
6.640,-6.99,4.20,3.73,8.96
6.650,-6.39,7.24,3.77,10.36
6.660,-4.54,9.60,3.36,11.14
6.671,-1.89,10.03,3.14,10.68
6.681,0.86,9.70,3.45,10.34
6.690,3.12,8.91,4.17,10.32
6.700,4.50,7.70,5.19,10.32
6.710,5.39,5.81,5.95,9.91
6.720,5.94,3.41,5.53,8.80
6.730,5.83,0.13,4.34,7.27
6.740,5.05,-4.60,2.26,7.20
6.750,3.47,-8.02,0.86,8.78
6.760,2.65,-7.48,-1.39,8.06
6.770,2.12,-8.31,-2.93,9.07
6.780,1.35,-8.62,-2.69,9.13
6.790,0.61,-8.34,-2.53,8.74
6.800,-0.26,-7.63,-1.91,7.87
6.809,-1.37,-7.17,-1.10,7.39
6.820,-2.29,-6.83,-0.28,7.21
6.830,-2.87,-6.53,0.45,7.14
6.840,-3.07,-6.00,1.16,6.84
6.850,-2.82,-5.14,1.87,6.15
6.859,-2.22,-4.16,2.37,5.28
6.870,-1.61,-3.35,2.48,4.47
6.879,-1.25,-2.60,2.10,3.57
6.889,-1.06,-1.61,1.60,2.50
6.900,-0.73,-0.33,1.47,1.67
6.909,0.01,0.59,1.78,1.88
6.919,0.58,0.91,1.85,2.15
6.929,0.83,1.31,1.47,2.14
6.939,0.99,2.12,0.50,2.39
6.949,1.28,2.89,-1.09,3.34
6.959,2.18,3.27,-2.31,4.56
6.969,3.64,3.92,-3.32,6.30
6.979,5.29,4.98,-4.63,8.62
6.989,5.57,4.05,-5.30,8.69
6.999,3.96,2.87,-5.53,7.38
7.009,2.55,2.04,-5.13,6.08
7.019,1.93,0.99,-4.20,4.73
7.029,1.78,-0.22,-2.98,3.48
7.039,1.51,-0.87,-1.44,2.26
7.049,0.77,-0.52,-0.22,0.95
7.059,-0.66,1.77,0.44,1.94
7.069,-2.01,7.74,0.60,8.02
7.079,-1.51,15.08,-0.12,15.16
7.090,-0.29,17.01,0.99,17.04
7.099,-1.84,12.26,5.44,13.54
7.109,-3.39,5.84,7.22,9.88
7.119,-3.60,1.34,7.01,7.99
7.129,-3.14,-1.32,6.66,7.48
7.139,-2.23,-2.42,6.24,7.05
7.149,-1.22,-1.88,5.53,5.96
7.159,0.05,-0.66,4.02,4.08
7.169,0.70,0.16,2.15,2.27
7.179,-0.31,1.00,0.41,1.12
7.189,-2.59,2.08,-0.82,3.42
7.199,-5.36,2.35,-1.59,6.06
7.209,-6.81,1.54,-1.50,7.14
7.219,-7.01,-0.04,-0.30,7.01
7.229,-6.10,-1.21,0.47,6.24
7.239,-3.99,-2.18,0.83,4.62
7.249,-1.87,-2.68,1.32,3.53
7.259,-1.02,-2.75,1.31,3.21
7.269,-1.64,-3.45,0.78,3.89
7.279,-2.19,-4.11,-0.17,4.66
7.289,-2.30,-4.56,-0.92,5.19
7.299,-2.23,-4.64,-1.35,5.32
7.309,-1.96,-4.23,-1.58,4.92
7.319,-1.68,-3.32,-1.46,4.00
7.329,-1.50,-2.37,-0.95,2.96
7.339,-1.46,-1.25,-0.49,1.99
7.349,-1.30,0.19,0.06,1.32
7.359,-0.97,1.33,0.46,1.71
7.369,-0.54,1.89,0.52,2.03
7.379,-0.19,1.94,0.23,1.96
7.389,0.05,1.65,-0.27,1.67
7.399,-0.05,0.93,-0.59,1.10
7.409,-0.37,0.03,-0.76,0.85
7.419,-0.52,-0.81,-1.02,1.40
7.429,-0.36,-1.34,-1.71,2.20
7.439,-0.04,-1.76,-2.90,3.39
7.449,0.40,-2.12,-4.41,4.91
7.458,1.16,-2.40,-5.55,6.16
7.469,2.22,-2.54,-5.61,6.55
7.479,3.33,-2.30,-4.74,6.23
7.489,4.02,-1.67,-3.54,5.62
7.499,3.98,-0.63,-2.09,4.54
7.509,3.48,0.64,-0.95,3.66
7.519,2.98,1.39,-0.64,3.35
7.529,2.38,1.46,-0.98,2.96
7.539,1.98,1.04,-1.57,2.73
7.549,1.86,0.51,-2.31,3.01
7.558,1.98,0.34,-3.36,3.91
7.568,2.32,0.46,-4.46,5.05
7.578,2.60,0.88,-4.96,5.67
7.588,2.57,1.33,-4.91,5.69
7.598,2.34,1.22,-4.77,5.46
7.608,2.38,0.70,-3.95,4.67
7.618,3.29,0.03,-2.52,4.15
7.628,3.79,-0.30,-0.74,3.87
7.638,3.75,-0.82,0.29,3.85
7.648,2.88,-1.27,0.30,3.16
7.658,1.12,-1.53,0.30,1.92
7.668,-0.27,-1.62,0.92,1.88
7.678,-1.49,-1.35,1.90,2.76
7.688,-2.65,-1.01,2.78,3.97
7.698,-3.57,-0.62,3.70,5.18
7.708,-4.70,-0.06,4.42,6.45
7.718,-5.67,1.45,4.44,7.35
7.728,-5.95,3.80,3.75,7.99
7.738,-5.59,6.61,3.01,9.17
7.748,-4.11,9.10,2.13,10.21
7.759,-1.84,10.43,1.75,10.74
7.768,0.78,10.79,1.74,10.96
7.778,3.03,10.11,2.48,10.85
7.788,4.49,8.25,3.61,10.07
7.798,5.43,5.73,4.32,9.00
7.808,5.79,2.53,3.88,7.41
7.818,5.23,-0.99,3.03,6.12
7.828,4.32,-5.63,1.30,7.21
7.838,3.25,-7.45,0.54,8.14
7.848,2.79,-6.34,-1.43,7.07
7.858,2.59,-6.18,-2.17,7.04
7.868,2.23,-6.30,-2.12,7.01
7.878,1.67,-6.24,-1.79,6.70
7.888,0.45,-5.27,-1.43,5.48
7.898,-0.77,-5.08,-1.33,5.31
7.908,-1.55,-5.05,-0.91,5.36
7.918,-2.13,-4.66,-0.40,5.14
7.928,-2.49,-3.97,0.09,4.69
7.938,-2.57,-3.16,0.47,4.10
7.948,-2.60,-2.41,0.66,3.61
7.958,-2.65,-1.84,0.73,3.31
7.968,-2.68,-1.67,0.78,3.25
7.978,-2.64,-1.82,0.96,3.35
7.988,-2.47,-2.17,1.26,3.52
7.998,-2.02,-2.66,1.55,3.68
8.008,-1.47,-2.86,1.69,3.64
8.018,-0.92,-2.54,1.50,3.09
8.028,-0.40,-2.00,0.94,2.25
8.038,0.11,-1.12,0.58,1.27
8.048,0.88,0.11,0.29,0.94
8.058,1.75,1.61,-0.29,2.40
8.068,2.52,3.21,-1.07,4.22
8.078,3.06,4.34,-1.78,5.60
8.088,2.83,4.12,-2.58,5.62
8.098,2.03,2.79,-3.34,4.80
8.108,0.63,2.01,-3.93,4.46
8.118,-0.17,1.28,-4.16,4.35
8.128,0.08,0.47,-3.79,3.82
8.138,1.03,0.09,-3.21,3.37
8.148,1.99,-0.02,-2.89,3.51
8.158,2.71,0.15,-2.62,3.77
8.168,3.05,0.71,-1.94,3.69
8.178,2.79,1.38,-1.15,3.32
8.188,1.94,2.14,-0.32,2.91
8.197,0.67,4.79,0.44,4.85
8.207,-0.42,9.45,0.21,9.46
8.218,-0.39,14.47,-2.02,14.61
8.229,-1.15,15.23,-2.64,15.50
8.238,-3.20,11.08,1.00,11.57
8.247,-4.23,4.17,3.68,6.99
8.257,-4.45,-0.96,4.87,6.67
8.267,-3.99,-3.69,5.85,7.99
8.277,-3.09,-4.74,5.92,8.19
8.287,-2.40,-4.65,5.01,7.24
8.297,-1.56,-3.75,3.46,5.33
8.307,-0.56,-3.00,1.98,3.63
8.317,0.20,-2.15,0.86,2.32
8.327,0.20,-1.15,0.25,1.19
8.337,-0.72,0.27,0.29,0.82
8.347,-2.18,2.02,0.11,2.97
8.357,-3.02,2.97,-0.30,4.25
8.368,-2.82,2.83,-0.17,4.00
8.377,-2.55,2.42,0.58,3.57
8.387,-2.51,1.50,1.01,3.10
8.397,-2.58,-0.13,0.90,2.73
8.407,-2.71,-1.88,0.36,3.32
8.417,-2.88,-3.58,-0.40,4.61
8.427,-2.82,-5.00,-0.91,5.81
8.437,-2.72,-5.75,-1.08,6.45
8.447,-2.60,-5.67,-1.44,6.40
8.457,-2.47,-4.91,-1.60,5.73
8.467,-2.54,-3.63,-1.26,4.61
8.477,-2.46,-1.86,-0.72,3.17
8.487,-2.18,-0.18,-0.08,2.19
8.497,-1.76,1.08,0.58,2.14
8.507,-1.08,1.57,1.03,2.16
8.517,-0.59,1.35,0.85,1.70
8.527,-0.45,1.19,0.02,1.27
8.537,-0.27,1.05,-0.86,1.38
8.547,-0.08,0.53,-1.31,1.41
8.557,-0.15,-0.37,-1.56,1.61
8.567,-0.29,-1.08,-1.78,2.10
8.577,-0.16,-1.39,-2.18,2.60
8.587,0.28,-1.57,-2.83,3.25
8.597,0.83,-1.63,-3.38,3.84
8.607,1.29,-1.48,-3.60,4.10
8.617,1.78,-1.36,-3.44,4.11
8.627,2.37,-1.21,-3.18,4.14
8.637,2.80,-0.98,-2.98,4.21
8.647,2.71,-0.63,-2.83,3.97
8.657,2.86,0.11,-2.86,4.05
8.667,3.37,0.91,-2.61,4.35
8.677,3.46,1.52,-2.23,4.39
8.687,3.50,1.73,-2.39,4.58
8.697,3.73,1.55,-3.09,5.09
8.707,3.67,1.30,-3.80,5.44
8.717,3.26,1.30,-3.87,5.22
8.727,2.71,1.28,-3.49,4.60
8.737,2.42,0.58,-3.33,4.16
8.747,2.39,-0.40,-3.22,4.03
8.757,2.82,-0.87,-3.07,4.26
8.767,3.05,-0.66,-2.26,3.86
8.776,2.46,-0.35,-1.32,2.81
8.787,1.80,-0.51,-1.30,2.28
8.797,0.79,-0.83,-1.48,1.88
8.807,-0.60,-1.37,-0.96,1.78
8.816,-1.81,-1.83,0.16,2.58
8.826,-2.87,-2.10,1.31,3.79
8.837,-3.70,-2.15,2.39,4.90
8.846,-4.35,-1.84,3.54,5.90
8.856,-5.11,-1.01,4.68,7.00
8.867,-5.76,0.56,4.92,7.60
8.876,-6.01,3.69,4.53,8.38
8.887,-5.69,8.00,3.87,10.55
8.896,-3.81,11.36,2.80,12.30
8.907,-0.55,13.14,2.70,13.43
8.918,2.68,13.81,3.24,14.44
8.926,4.84,12.47,3.91,13.94
8.936,5.89,9.14,4.46,11.76
8.946,6.52,5.30,4.73,9.65
8.956,6.22,1.31,4.53,7.81
8.966,5.06,-2.07,3.53,6.51
8.976,3.57,-6.08,1.07,7.13
8.986,2.11,-7.60,-0.57,7.91
8.996,1.61,-5.82,-2.06,6.38
9.006,1.26,-5.79,-2.37,6.38
9.016,0.90,-5.61,-1.51,5.88
9.026,0.64,-6.01,-1.26,6.17
9.036,-0.21,-5.72,-0.80,5.78
9.046,-1.10,-5.56,-0.57,5.70
9.056,-1.70,-5.69,-0.16,5.95
9.066,-2.01,-5.36,0.50,5.75
9.076,-2.25,-4.78,1.10,5.40
9.086,-2.23,-4.09,1.53,4.91
9.096,-1.97,-3.33,1.82,4.28
9.106,-1.56,-2.65,1.91,3.62
9.116,-1.13,-2.40,1.89,3.26
9.126,-0.71,-2.25,1.71,2.91
9.136,-0.21,-2.12,1.61,2.67
9.146,0.25,-2.34,1.64,2.87
9.156,0.65,-2.56,1.60,3.09
9.166,0.87,-2.46,1.18,2.87
9.176,0.93,-1.43,0.72,1.85
9.186,1.05,0.37,0.22,1.14
9.196,1.57,1.62,-0.63,2.34
9.206,2.30,3.25,-1.36,4.21
9.216,3.53,5.61,-2.05,6.94
9.226,4.42,6.53,-3.16,8.50
9.236,4.03,5.48,-4.22,8.01
9.246,2.62,3.76,-4.90,6.71
9.256,1.63,1.88,-4.90,5.50
9.266,1.64,0.30,-4.31,4.62
9.276,2.38,-0.59,-3.34,4.15
9.286,2.71,-0.78,-2.14,3.53
9.296,2.37,-0.52,-1.41,2.81
9.306,1.77,0.30,-0.45,1.85
9.316,0.74,2.85,0.28,2.96
9.326,0.04,8.23,0.47,8.25
9.336,-0.00,13.51,-0.45,13.51
9.347,0.25,14.79,-0.71,14.81
9.356,-1.43,11.20,2.27,11.52
9.366,-2.87,5.42,4.33,7.51
9.376,-3.36,0.39,4.96,6.00
9.386,-3.17,-2.82,5.17,6.69
9.396,-2.46,-3.91,5.13,6.91
9.406,-1.51,-3.38,4.70,5.98
9.416,-0.42,-2.55,3.46,4.32
9.425,0.26,-2.06,1.88,2.80
9.436,0.26,-1.57,0.42,1.64
9.446,-0.49,-0.81,-0.75,1.21
9.456,-1.97,0.34,-0.88,2.19
9.466,-3.70,1.50,-0.72,4.05
9.475,-4.76,2.25,-0.40,5.28
9.486,-4.76,1.92,0.13,5.13
9.496,-4.21,1.17,0.80,4.44
9.506,-3.49,0.59,1.52,3.85
9.515,-2.79,-0.35,1.85,3.36
9.525,-2.52,-1.78,1.80,3.58
9.536,-2.33,-3.50,1.09,4.35
9.546,-2.25,-5.07,0.28,5.56
9.555,-2.24,-5.93,-0.72,6.38
9.565,-2.31,-5.90,-1.54,6.52
9.575,-2.32,-5.22,-2.23,6.13
9.585,-2.36,-4.22,-2.51,5.45
9.596,-2.39,-3.03,-2.26,4.48
9.605,-2.33,-1.65,-1.57,3.26
9.615,-2.17,-0.49,-0.49,2.27
9.625,-1.68,0.58,0.53,1.86
9.635,-1.21,1.26,1.31,2.18
9.646,-0.93,2.15,1.31,2.68
9.655,-0.63,2.63,0.63,2.78
9.665,-0.42,2.35,-0.07,2.39
9.675,-0.29,1.46,-0.63,1.61
9.685,-0.16,0.37,-1.19,1.25
9.695,-0.08,-0.41,-2.06,2.11
9.705,0.23,-0.99,-3.15,3.31
9.715,0.56,-1.59,-4.15,4.48
9.725,0.66,-2.08,-4.64,5.13
9.735,0.90,-2.54,-4.57,5.31
9.746,1.26,-2.73,-4.00,5.00
9.755,1.76,-2.46,-3.29,4.47
9.765,2.06,-1.66,-2.64,3.74
9.775,2.29,-0.31,-2.29,3.25
9.785,2.66,1.19,-1.96,3.51
9.795,3.00,2.34,-1.66,4.15
9.805,3.70,2.74,-1.93,4.99
9.815,4.29,2.37,-2.84,5.67
9.825,4.38,1.94,-3.67,6.04
9.835,4.06,1.85,-3.80,5.86
9.845,3.67,1.68,-3.57,5.38
9.855,3.58,0.93,-3.51,5.10
9.865,3.97,0.06,-3.53,5.31
9.875,4.54,-0.22,-3.13,5.52
9.885,4.38,0.03,-2.07,4.84
9.895,3.56,0.07,-1.53,3.87
9.905,2.66,-0.06,-1.75,3.18
9.915,1.17,-0.34,-1.85,2.22
9.925,-0.51,-0.83,-1.32,1.65
9.935,-1.80,-1.23,-0.38,2.21
9.945,-2.86,-1.43,0.54,3.24
9.955,-3.69,-1.48,1.42,4.22
9.965,-4.44,-1.41,2.65,5.36
9.975,-5.06,-1.24,4.05,6.60
9.985,-5.50,0.25,4.87,7.35
9.995,-5.77,3.47,4.48,8.09
10.005,-5.85,7.26,3.87,10.09
10.015,-4.77,10.08,3.49,11.69
10.025,-1.96,11.01,3.70,11.78
10.035,1.33,10.88,4.05,11.69
10.045,3.47,9.53,4.47,11.09
10.054,4.54,7.02,4.77,9.63
10.065,5.34,4.14,4.49,8.11
10.074,5.63,0.76,3.99,6.95
10.085,4.59,-2.96,2.76,6.13
10.095,3.09,-7.80,0.55,8.41
10.105,1.67,-7.23,-0.56,7.44
10.115,1.44,-6.04,-2.53,6.70
10.124,1.17,-6.05,-2.22,6.55
10.134,0.93,-6.32,-1.90,6.66
10.144,0.36,-6.23,-1.53,6.42
10.155,-0.41,-5.55,-1.08,5.67
10.164,-1.11,-5.56,-0.82,5.72
10.174,-1.57,-5.45,-0.13,5.67
10.184,-1.80,-4.86,0.39,5.20
10.195,-1.92,-4.00,0.84,4.51
10.204,-1.90,-3.09,1.07,3.79
10.214,-1.84,-2.20,1.11,3.08
10.224,-1.84,-1.53,1.04,2.61
10.234,-1.78,-1.25,0.91,2.36
10.244,-1.53,-1.48,0.91,2.31
10.254,-1.06,-2.10,1.15,2.61
10.264,-0.69,-2.59,1.41,3.03
10.274,-0.30,-2.89,1.30,3.19
10.284,0.05,-2.73,0.79,2.84
10.294,0.39,-1.53,0.29,1.61
10.304,1.09,0.18,0.03,1.10
10.314,2.21,1.56,-0.19,2.71
10.324,3.59,3.93,-0.37,5.34
10.334,5.19,6.49,-1.12,8.38
10.344,6.07,7.30,-2.68,9.86
10.354,5.32,6.34,-4.04,9.21
10.364,3.53,4.28,-4.69,7.26
10.374,2.05,2.16,-4.95,5.77
10.384,1.65,0.45,-4.99,5.28
10.394,2.01,-0.52,-4.36,4.83
10.404,1.97,-0.77,-3.25,3.88
10.414,1.29,-0.34,-1.97,2.38
10.424,0.11,1.35,-0.38,1.41
10.434,-1.05,5.81,0.70,5.95
10.444,-1.05,12.12,0.78,12.19
10.455,-0.13,16.19,-0.82,16.21
10.464,-1.02,13.55,0.60,13.61
10.474,-2.77,7.20,3.77,8.58
10.484,-3.40,1.13,5.21,6.32
10.494,-3.14,-2.71,5.76,7.10
10.504,-2.47,-4.28,5.84,7.65
10.514,-1.66,-4.39,5.20,7.01
10.524,-0.81,-3.21,3.94,5.15
10.534,0.13,-1.81,2.46,3.06
10.544,0.57,-1.12,1.08,1.65
10.554,0.04,-0.39,-0.20,0.44
10.564,-1.36,0.84,-0.73,1.76
10.574,-3.38,2.21,-0.77,4.11
10.584,-4.64,2.95,-0.88,5.57
10.594,-4.87,2.23,-0.43,5.37
10.604,-4.45,1.06,0.19,4.58
10.614,-3.53,0.14,0.91,3.65
10.624,-2.66,-1.03,1.31,3.14
10.634,-2.28,-2.51,1.26,3.61
10.644,-2.45,-4.02,0.86,4.78
10.654,-2.36,-5.34,0.24,5.85
10.664,-2.31,-6.12,-0.24,6.54
10.674,-2.27,-6.11,-0.91,6.58
10.684,-2.04,-5.44,-1.46,5.99
10.694,-1.95,-4.29,-1.45,4.93
10.704,-1.84,-2.72,-1.07,3.45
10.714,-1.54,-0.99,-0.41,1.88
10.724,-1.29,0.47,0.22,1.39
10.734,-1.24,1.16,0.56,1.78
10.744,-1.20,1.43,0.26,1.88
10.754,-0.73,1.50,-0.07,1.67
10.764,-0.27,1.37,-0.09,1.40
10.774,-0.23,1.03,-0.13,1.07
10.784,-0.47,0.43,-0.55,0.84
10.794,-0.51,-0.35,-1.05,1.22
10.804,-0.27,-0.89,-1.73,1.96
10.814,-0.01,-1.15,-2.62,2.86
10.824,0.44,-1.11,-3.44,3.64
10.834,0.93,-1.09,-3.74,4.01
10.843,1.54,-1.10,-3.73,4.18
10.853,2.13,-0.96,-3.68,4.36
10.863,2.42,-0.74,-3.80,4.57
10.873,2.45,-0.45,-4.04,4.75
10.884,2.54,-0.00,-3.93,4.68
10.893,2.79,0.50,-3.30,4.35
10.903,3.06,1.01,-2.80,4.26
10.913,3.57,1.33,-2.83,4.75
10.923,4.02,1.32,-3.35,5.40
10.933,4.02,1.37,-3.81,5.70
10.943,3.53,1.49,-3.69,5.32
10.953,3.04,1.08,-3.46,4.73
10.963,2.90,-0.19,-3.63,4.65
10.973,3.00,-1.06,-3.52,4.75
10.983,3.23,-0.95,-2.67,4.29
10.993,2.88,-0.73,-1.55,3.35
11.003,2.20,-0.92,-1.19,2.67
11.013,1.40,-1.24,-1.07,2.15
11.023,0.29,-1.24,-0.28,1.31
11.033,-0.67,-0.89,0.63,1.28
11.043,-1.72,-0.51,1.65,2.44
11.053,-2.71,-0.14,2.52,3.70
11.063,-3.80,0.17,3.67,5.29
11.073,-5.01,0.46,4.70,6.88
11.083,-5.94,2.02,4.93,7.97
11.093,-6.26,5.35,4.96,9.61
11.103,-5.37,8.90,4.34,11.27
11.113,-3.32,10.45,3.64,11.55
11.124,-0.93,10.89,3.61,11.51
11.133,1.38,10.57,3.85,11.33
11.143,2.93,8.76,4.39,10.23
11.153,3.94,6.25,4.75,8.78
11.163,4.72,3.64,4.52,7.48
11.173,5.00,0.70,3.76,6.30
11.183,4.39,-2.45,2.33,5.54
11.193,3.26,-6.93,-0.00,7.66
11.203,2.02,-7.54,-0.45,7.82
11.213,1.65,-6.36,-1.92,6.84
11.223,1.49,-7.15,-2.21,7.63
11.233,1.12,-7.93,-1.73,8.19
11.243,0.47,-7.70,-1.39,7.84
11.253,-0.23,-7.19,-0.73,7.23
11.263,-0.93,-6.76,-0.16,6.83
11.273,-1.44,-6.38,0.49,6.56
11.283,-1.81,-5.68,1.17,6.07
11.293,-2.11,-4.86,1.66,5.55
11.303,-2.20,-3.76,1.96,4.77
11.313,-2.09,-2.36,2.06,3.76
11.323,-1.82,-1.16,1.77,2.80
11.333,-1.57,-0.20,1.15,1.96
11.343,-1.24,0.47,0.69,1.49
11.353,-0.85,0.71,0.63,1.28
11.363,-0.46,0.53,0.79,1.06
11.374,-0.16,0.45,0.68,0.83
11.383,-0.10,0.57,0.27,0.64
11.392,0.02,1.08,-0.17,1.09
11.403,0.73,1.16,-0.44,1.44
11.412,1.94,1.67,-0.51,2.61
11.423,3.53,3.56,-0.72,5.07
11.433,5.57,4.84,-1.61,7.55
11.442,6.81,4.64,-3.33,8.89
11.453,6.57,3.51,-4.45,8.68
11.462,5.15,2.25,-4.78,7.37
11.473,3.47,1.48,-4.59,5.94
11.483,2.28,0.69,-4.15,4.78
11.492,1.53,-0.39,-3.07,3.46
11.502,0.68,-0.72,-1.77,2.03
11.512,-0.36,0.16,-0.55,0.68
11.522,-1.82,3.51,0.45,3.98
11.532,-2.55,9.98,0.80,10.33
11.542,-1.48,16.41,-0.27,16.48
11.554,-0.57,16.49,0.45,16.50
11.562,-2.04,10.84,4.06,11.76
11.572,-3.24,4.14,5.79,7.82
11.582,-3.28,-0.90,5.91,6.82
11.592,-2.45,-3.90,5.79,7.40
11.602,-1.58,-5.16,5.07,7.41
11.612,-0.81,-4.82,4.00,6.32
11.622,0.08,-3.32,2.73,4.30
11.632,0.77,-2.24,1.36,2.73
11.642,0.61,-1.34,-0.08,1.48
11.652,-0.68,-0.33,-1.31,1.51
11.662,-3.00,0.42,-2.13,3.70
11.672,-4.77,0.99,-2.67,5.55
11.682,-5.31,0.67,-1.91,5.68
11.692,-5.28,-0.19,-0.46,5.31
11.702,-4.33,-0.63,0.38,4.39
11.712,-2.85,-1.10,1.11,3.25
11.722,-1.83,-2.45,1.27,3.32
11.732,-1.67,-3.67,1.16,4.20
11.742,-1.49,-4.35,0.82,4.67
11.752,-1.26,-4.95,0.14,5.11
11.762,-1.12,-5.10,-0.49,5.24
11.772,-1.01,-4.48,-0.91,4.68
11.782,-1.19,-3.38,-1.16,3.76
11.792,-1.49,-2.20,-1.27,2.95
11.802,-1.70,-1.02,-0.99,2.22
11.812,-1.62,-0.09,-0.40,1.67
11.822,-1.17,0.54,0.18,1.30
11.832,-0.99,1.08,0.38,1.51
11.842,-0.68,1.85,0.08,1.98
11.852,-0.26,2.09,-0.23,2.12
11.862,-0.17,1.56,-0.54,1.66
11.872,-0.16,0.80,-0.96,1.26
11.882,0.01,0.13,-1.41,1.42
11.892,0.24,-0.46,-2.07,2.13
11.902,0.51,-0.88,-3.13,3.29
11.912,0.66,-1.30,-4.20,4.44
11.922,0.57,-1.59,-4.59,4.89
11.932,0.55,-1.49,-4.30,4.59
11.942,0.69,-1.32,-3.70,3.99
11.952,0.97,-1.10,-3.21,3.53
11.962,1.28,-0.47,-2.65,2.98
11.972,1.84,0.34,-2.33,2.99
11.982,2.49,0.95,-2.18,3.44
11.992,3.23,1.24,-2.16,4.08
12.002,3.94,1.20,-2.53,4.83
12.012,4.28,1.27,-3.07,5.42
12.022,4.06,1.60,-3.09,5.35
12.032,3.51,1.91,-2.73,4.84
12.042,3.42,1.41,-2.67,4.56
12.052,3.64,0.64,-2.74,4.60
12.061,4.23,0.21,-2.41,4.87
12.072,4.20,0.33,-1.37,4.43
12.082,3.48,0.64,-0.98,3.68
12.092,2.81,0.72,-1.29,3.17
12.102,1.43,0.30,-1.31,1.96
12.112,-0.24,-0.08,-0.73,0.77
12.122,-1.54,-0.22,0.17,1.56
12.132,-2.61,-0.25,0.96,2.80
12.142,-3.56,-0.36,1.93,4.07
12.152,-4.57,-0.74,3.27,5.67
12.161,-5.38,-0.29,4.18,6.82
12.172,-6.24,2.14,3.93,7.68
12.181,-6.61,5.52,3.27,9.22
12.192,-5.97,7.94,2.93,10.35
12.201,-3.65,8.73,3.00,9.92
12.211,-0.35,8.58,3.58,9.31
12.221,2.20,7.64,4.15,8.97
12.231,3.73,6.11,4.64,8.53
12.241,4.68,4.46,4.90,8.11
12.251,5.26,2.38,4.43,7.28
12.261,5.15,-0.15,3.63,6.30
12.271,4.09,-3.86,1.82,5.91
12.281,2.89,-8.03,-0.01,8.54
12.291,1.76,-7.16,-0.94,7.43
12.301,1.48,-6.57,-2.42,7.15
12.311,1.05,-7.06,-2.22,7.48
12.321,0.57,-8.02,-1.88,8.26
12.331,-0.02,-7.81,-1.36,7.93
12.341,-0.69,-7.31,-1.05,7.41
12.351,-1.12,-7.06,-0.43,7.16
12.361,-1.37,-6.66,0.12,6.80
12.371,-1.52,-6.06,0.58,6.27
12.381,-1.56,-5.10,1.03,5.43
12.391,-1.52,-3.80,1.41,4.33
12.401,-1.38,-2.53,1.61,3.30
12.411,-1.33,-1.43,1.51,2.47
12.421,-1.31,-0.31,1.04,1.70
12.431,-1.06,0.83,0.84,1.59
12.441,-0.50,1.50,1.11,1.93
12.451,-0.02,1.63,1.36,2.12
12.461,0.34,1.81,1.10,2.15
12.471,0.66,2.04,0.50,2.20
12.481,1.13,2.16,-0.31,2.46
12.491,1.85,2.38,-0.99,3.17
12.501,3.15,3.52,-1.77,5.05
12.511,4.52,4.19,-3.08,6.89
12.521,4.75,4.43,-4.35,7.82
12.531,3.74,4.16,-4.74,7.34
12.541,2.26,3.13,-4.58,5.99
12.551,1.14,1.82,-4.34,4.84
12.560,0.75,0.30,-4.04,4.12
12.571,1.05,-0.48,-3.01,3.23
12.581,1.21,-0.28,-1.90,2.27
12.591,0.68,1.20,-0.73,1.56
12.601,-0.13,4.63,0.25,4.64
12.611,-0.68,10.09,0.78,10.14
12.621,-0.32,15.22,-0.18,15.22
12.631,-0.06,14.87,0.29,14.87
12.641,-1.70,9.76,3.05,10.37
12.651,-3.23,3.96,4.35,6.71
12.661,-3.52,-0.37,4.75,5.92
12.671,-2.49,-2.96,5.19,6.48
12.680,-1.18,-3.80,5.06,6.44
12.691,-0.32,-3.18,3.94,5.08
12.701,0.55,-2.17,2.40,3.28
12.711,1.15,-1.64,1.09,2.28
12.721,0.78,-1.30,-0.10,1.52
12.731,-0.76,-0.77,-0.96,1.45
12.741,-3.01,-0.09,-1.51,3.37
12.750,-4.64,0.16,-1.93,5.03
12.760,-5.23,-0.41,-1.57,5.47
12.770,-4.93,-1.38,-0.77,5.18
12.781,-3.95,-2.03,-0.15,4.45
12.791,-3.00,-2.52,0.71,3.98
12.801,-2.25,-3.10,1.14,4.00
12.811,-2.25,-3.82,1.25,4.61
12.820,-2.34,-4.44,0.97,5.12
12.831,-2.13,-4.93,0.47,5.40
12.840,-1.97,-4.95,-0.03,5.33
12.850,-1.91,-4.20,-0.48,4.64
12.860,-1.85,-2.73,-0.72,3.38
12.870,-1.64,-1.00,-0.62,2.02
12.880,-1.43,0.66,-0.35,1.61
12.890,-1.13,1.90,-0.05,2.21
12.900,-0.92,2.21,0.22,2.40
12.910,-1.04,2.12,0.25,2.38
12.920,-0.83,2.31,-0.03,2.45
12.930,-0.42,2.23,-0.26,2.28
12.940,-0.35,1.57,-0.66,1.74
12.950,-0.53,0.54,-1.26,1.47
12.960,-0.72,-0.44,-1.79,1.99
12.970,-0.76,-1.24,-2.50,2.89
12.980,-0.69,-1.83,-3.43,3.94
12.990,-0.50,-2.14,-4.16,4.70
13.000,-0.11,-2.33,-4.41,4.99
13.010,0.42,-2.37,-4.17,4.81
13.020,1.21,-2.05,-3.91,4.58
13.030,1.76,-1.33,-3.26,3.94
13.040,2.55,-0.51,-2.96,3.94
13.050,3.42,0.31,-2.52,4.26
13.060,3.60,0.83,-2.20,4.30
13.070,3.55,0.99,-2.61,4.52
13.080,3.48,1.06,-3.23,4.87
13.090,3.03,1.49,-3.19,4.64
13.100,2.62,1.54,-2.68,4.05
13.110,2.33,0.82,-2.44,3.47
13.120,2.07,0.37,-2.24,3.07
13.130,2.39,0.45,-1.69,2.96
13.140,2.58,0.47,-1.21,2.89
13.150,2.38,0.04,-1.21,2.67
13.160,1.66,-0.66,-1.28,2.20
13.170,0.57,-1.07,-0.79,1.44
13.180,-0.42,-0.89,0.36,1.05
13.190,-1.21,-0.21,1.36,1.84
13.200,-2.06,0.47,2.08,2.97
13.210,-3.30,0.55,2.83,4.38
13.220,-4.59,0.46,3.64,5.87
13.230,-5.39,1.21,4.33,7.03
13.240,-5.61,4.08,5.00,8.55
13.250,-4.69,8.36,4.45,10.57
13.260,-2.60,10.96,3.32,11.74
13.271,-0.47,11.61,3.23,12.06
13.281,1.51,11.19,3.51,11.82
13.290,3.03,9.39,4.13,10.70
13.300,4.18,6.86,4.60,9.26
13.310,4.93,3.97,4.10,7.54
13.320,4.75,0.66,3.12,5.72
13.330,3.94,-3.89,1.23,5.67
13.340,2.86,-7.78,-0.02,8.29
13.350,2.10,-6.87,-0.47,7.20
13.360,1.99,-7.14,-2.23,7.75
13.369,1.73,-7.74,-1.84,8.14
13.380,1.30,-8.46,-1.62,8.71
13.390,0.45,-8.06,-1.41,8.20
13.400,-0.35,-7.23,-1.06,7.31
13.409,-0.92,-6.94,-0.30,7.01
13.420,-1.30,-6.77,0.43,6.91
13.429,-1.56,-6.31,0.96,6.57
13.440,-1.66,-5.51,1.35,5.91
13.449,-1.53,-4.43,1.59,4.95
13.459,-1.11,-3.55,1.77,4.12
13.470,-0.85,-2.94,1.64,3.47
13.480,-0.86,-2.26,1.27,2.73
13.489,-0.96,-1.20,1.00,1.83
13.500,-0.69,-0.07,1.13,1.33
13.509,-0.20,0.23,1.33,1.36
13.519,0.15,0.40,1.30,1.36
13.529,0.40,1.55,1.07,1.92
13.539,0.63,3.54,0.49,3.63
13.549,1.18,4.54,-0.61,4.73
13.559,2.50,5.61,-2.05,6.48
13.569,4.20,6.57,-4.25,8.88
13.579,5.13,5.42,-5.98,9.56
13.589,4.02,3.48,-5.70,7.80
13.599,2.07,1.94,-4.87,5.63
13.609,0.77,0.42,-4.10,4.20
13.619,0.48,-0.98,-3.54,3.70
13.629,0.87,-1.47,-2.21,2.79
13.639,0.99,-1.08,-0.88,1.71
13.649,0.51,0.36,-0.22,0.66
13.659,0.02,3.74,0.02,3.74
13.669,-0.19,9.65,0.76,9.68
13.679,0.53,15.56,0.42,15.57
13.690,0.88,16.17,1.18,16.24
13.699,-1.74,11.91,3.62,12.57
13.709,-3.79,6.14,4.31,8.41
13.719,-3.68,1.40,4.74,6.16
13.729,-2.38,-1.51,5.42,6.11
13.739,-1.15,-2.77,5.53,6.29
13.749,-0.11,-2.19,4.43,4.94
13.759,0.98,-1.55,2.61,3.19
13.769,1.50,-1.58,1.25,2.51
13.779,0.72,-1.52,0.14,1.69
13.789,-1.52,-1.00,-0.53,1.89
13.799,-4.36,-0.58,-0.90,4.49
13.809,-6.12,-0.52,-1.28,6.28
13.819,-6.29,-1.36,-0.86,6.50
13.829,-5.59,-2.38,-0.26,6.07
13.839,-4.36,-2.99,-0.06,5.29
13.849,-3.21,-3.36,0.62,4.69
13.859,-2.60,-3.57,1.04,4.54
13.869,-2.58,-3.91,1.15,4.83
13.879,-2.53,-4.16,0.66,4.92
13.889,-2.37,-4.60,-0.25,5.18
13.899,-2.32,-4.74,-0.92,5.36
13.909,-2.17,-4.17,-1.34,4.89
13.919,-1.88,-2.92,-1.60,3.82
13.929,-1.56,-1.49,-1.46,2.60
13.939,-1.28,-0.40,-0.89,1.61
13.949,-0.99,0.71,-0.46,1.30
13.959,-0.39,1.38,-0.11,1.44
13.969,-0.25,1.54,0.21,1.57
13.979,-0.27,2.09,-0.17,2.11
13.989,0.06,2.58,-0.52,2.63
13.999,-0.00,2.52,-0.84,2.66
14.009,-0.31,1.84,-1.27,2.26
14.019,-0.72,0.81,-1.52,1.87
14.029,-0.79,0.01,-2.07,2.22
14.039,-0.42,-0.72,-2.91,3.02
14.049,0.14,-1.33,-3.55,3.79
14.059,0.79,-1.74,-3.89,4.33
14.069,1.51,-2.04,-4.05,4.78
14.079,2.19,-2.03,-3.98,4.98
14.089,2.56,-1.66,-3.30,4.50
14.098,3.02,-1.10,-2.62,4.14
14.108,3.77,-0.33,-2.13,4.34
14.119,3.96,0.41,-1.74,4.34
14.128,3.58,1.00,-1.95,4.20
14.139,3.20,1.64,-2.59,4.43
14.148,2.73,2.46,-2.84,4.64
14.159,2.27,2.64,-2.71,4.41
14.168,2.31,1.79,-2.75,4.02
14.178,2.43,0.83,-2.78,3.78
14.188,2.84,0.30,-2.59,3.86
14.198,3.14,0.12,-2.01,3.73
14.208,2.77,-0.28,-1.73,3.28
14.218,1.97,-0.82,-1.77,2.77
14.228,0.80,-1.40,-1.54,2.23
14.238,-0.40,-1.56,-0.65,1.74
14.248,-1.33,-1.40,0.55,2.00
14.258,-2.27,-1.10,1.43,2.90
14.268,-3.15,-1.04,2.04,3.89
14.278,-4.17,-1.24,2.90,5.23
14.288,-4.77,-0.72,3.83,6.16
14.298,-5.09,1.28,4.25,6.75
14.308,-5.12,4.93,4.17,8.24
14.318,-3.98,8.86,3.33,10.27
14.328,-1.69,11.02,2.85,11.51
14.340,0.91,11.46,3.51,12.02
14.349,3.04,10.66,4.14,11.84
14.358,4.47,8.76,4.76,10.92
14.368,5.44,6.11,4.94,9.56
14.378,5.95,2.90,4.37,7.93
14.388,5.52,-0.47,3.34,6.47
14.398,4.34,-5.66,1.10,7.22
14.408,2.76,-7.87,0.16,8.35
14.418,2.00,-6.84,-1.78,7.34
14.428,1.73,-6.96,-2.49,7.59
14.438,1.35,-7.54,-2.19,7.97
14.448,0.81,-7.98,-2.03,8.28
14.458,0.16,-7.58,-1.46,7.72
14.468,-0.58,-7.00,-1.06,7.10
14.478,-1.07,-6.68,-0.28,6.77
14.488,-1.36,-6.26,0.58,6.43
14.498,-1.60,-5.39,1.27,5.76
14.508,-1.69,-4.10,1.71,4.75
14.518,-1.74,-2.66,1.84,3.67
14.528,-1.81,-1.35,1.45,2.69
14.538,-1.97,-0.12,0.82,2.13
14.548,-2.10,1.04,0.25,2.36
14.558,-2.02,1.49,0.31,2.53
14.568,-1.69,0.96,0.72,2.07
14.578,-1.35,-0.12,0.88,1.62
14.588,-1.06,-1.09,0.65,1.65
14.598,-0.50,-1.27,0.36,1.41
14.608,0.24,-0.39,0.18,0.49
14.618,1.30,0.81,-0.14,1.54
14.628,2.86,2.90,-0.55,4.10
14.638,4.79,5.44,-1.94,7.50
14.648,6.38,7.12,-4.01,10.36
14.658,6.28,5.85,-4.81,9.84
14.668,4.11,4.11,-4.76,7.51
14.678,1.94,2.72,-4.46,5.58
14.688,0.90,0.73,-4.28,4.44
14.698,0.97,-0.84,-3.53,3.75
14.708,1.14,-1.11,-2.50,2.97
14.718,0.74,-0.65,-1.82,2.07
14.728,0.05,0.77,-0.73,1.06
14.738,-0.30,4.37,0.77,4.44
14.748,-0.45,9.69,1.70,9.85
14.758,-0.01,13.98,0.12,13.98
14.769,-1.21,14.00,0.97,14.09
14.777,-3.40,10.32,3.55,11.43
14.787,-4.22,4.89,5.18,8.28
14.798,-3.49,0.32,6.16,7.08
14.807,-2.30,-2.43,6.49,7.31
14.817,-1.71,-3.42,5.56,6.75
14.827,-1.11,-2.98,3.86,5.00
14.837,-0.11,-2.40,2.32,3.34
14.847,0.60,-2.47,1.16,2.80
14.857,-0.16,-2.31,0.25,2.33
14.867,-2.25,-1.46,-0.12,2.69
14.877,-4.52,-0.32,-0.64,4.58
14.887,-5.77,-0.13,-1.28,5.91
14.897,-5.65,-1.02,-0.88,5.80
14.907,-4.63,-1.59,-0.50,4.92
14.917,-3.51,-1.78,0.22,3.95
14.927,-2.62,-2.11,0.69,3.44
14.937,-2.36,-2.85,0.87,3.80
14.947,-2.26,-3.26,0.74,4.03
14.957,-2.17,-3.93,0.29,4.50
14.967,-2.18,-4.67,-0.46,5.17
14.977,-2.23,-4.68,-1.15,5.31
14.987,-2.08,-3.88,-1.64,4.70
14.997,-1.90,-2.62,-1.66,3.64
15.007,-1.69,-1.17,-1.13,2.35
15.017,-1.42,0.29,-0.30,1.48
15.027,-1.09,1.78,0.49,2.15
15.037,-0.84,2.63,0.77,2.87
15.047,-0.77,2.92,0.17,3.02
15.057,-0.32,2.97,-0.69,3.07
15.067,0.05,2.49,-1.12,2.73
15.077,0.05,1.50,-1.29,1.97
15.087,-0.27,0.46,-1.33,1.43
15.097,-0.48,-0.08,-1.59,1.66
15.107,-0.36,-0.25,-2.24,2.28
15.117,-0.00,-0.34,-3.08,3.10
15.127,0.43,-0.71,-3.67,3.76
15.137,0.89,-1.29,-3.79,4.10
15.147,1.31,-1.81,-3.61,4.25
15.157,1.70,-2.21,-3.43,4.42
15.167,1.99,-2.18,-3.08,4.26
15.177,2.24,-1.47,-2.59,3.73
15.187,2.92,-0.45,-2.25,3.71
15.197,3.38,0.43,-2.09,4.00
15.207,3.69,0.85,-2.22,4.39
15.217,3.74,0.89,-2.60,4.64
15.227,3.49,1.15,-2.72,4.58
15.237,3.10,1.49,-2.44,4.22
15.247,3.12,1.22,-2.44,4.15
15.257,3.19,0.53,-2.70,4.21
15.267,3.37,0.14,-2.85,4.41
15.277,3.67,0.37,-2.20,4.30
15.287,3.62,0.45,-1.81,4.07
15.297,3.02,-0.02,-1.89,3.56
15.307,1.78,-0.65,-1.97,2.73
15.316,0.20,-1.06,-1.42,1.78
15.327,-1.00,-1.10,-0.31,1.51
15.336,-2.06,-0.90,0.75,2.37
15.347,-3.10,-0.66,1.33,3.44
15.356,-4.18,-0.73,2.23,4.80
15.367,-5.24,-0.91,3.30,6.26
15.376,-5.59,-0.02,4.01,6.88
15.387,-5.59,2.84,4.62,7.79
15.397,-4.71,7.38,4.31,9.76
15.407,-2.83,10.95,3.51,11.84
15.417,-0.18,12.41,3.50,12.89
15.428,2.30,12.29,4.04,13.14
15.436,3.89,10.49,4.59,12.09
15.447,4.82,7.47,4.99,10.20
15.456,5.39,4.10,4.67,8.23
15.467,5.43,0.30,3.97,6.73
15.476,4.35,-3.53,2.58,6.16
15.486,2.92,-8.09,0.14,8.60
15.496,1.76,-7.37,-0.79,7.62
15.506,1.66,-6.44,-2.78,7.21
15.516,1.56,-7.36,-2.43,7.91
15.526,1.13,-7.43,-1.98,7.77
15.536,0.25,-7.00,-1.77,7.23
15.546,-0.48,-6.44,-1.22,6.57
15.556,-1.03,-6.17,-0.76,6.30
15.566,-1.50,-5.80,-0.12,5.99
15.576,-1.78,-5.18,0.51,5.50
15.586,-1.96,-4.24,0.98,4.77
15.596,-1.97,-3.15,1.36,3.95
15.606,-1.86,-2.17,1.53,3.24
15.616,-1.63,-1.66,1.38,2.71
15.626,-1.46,-1.40,1.26,2.38
15.636,-1.26,-1.16,1.19,2.09
15.646,-0.74,-1.12,1.25,1.84
15.656,-0.09,-1.40,1.37,1.96
15.666,0.39,-1.84,1.27,2.27
15.676,0.61,-1.90,0.89,2.19
15.686,0.54,-1.19,0.54,1.41
15.696,0.58,1.00,0.32,1.20
15.706,1.26,2.62,-0.26,2.92
15.716,2.55,4.44,-0.86,5.19
15.726,4.16,6.19,-2.43,7.85
15.736,5.04,6.15,-4.41,9.09
15.746,4.10,4.80,-5.01,8.06
15.756,2.31,3.15,-4.75,6.15
15.766,1.16,1.49,-4.23,4.64
15.776,1.09,0.01,-3.73,3.89
15.786,1.79,-0.60,-2.65,3.26
15.796,2.06,-0.37,-1.54,2.60
15.806,1.69,0.53,-0.66,1.89
15.816,0.88,2.88,0.38,3.03
15.826,0.14,7.25,1.10,7.33
15.836,-0.20,12.29,0.94,12.33
15.847,0.19,15.66,-0.49,15.67
15.856,-1.54,13.75,0.60,13.85
15.866,-3.29,8.13,2.92,9.25
15.876,-3.73,1.92,4.04,5.83
15.886,-3.36,-2.63,4.52,6.21
15.895,-2.48,-5.01,4.86,7.40
15.906,-1.67,-5.10,4.52,7.02
15.916,-0.81,-4.01,3.32,5.26
15.926,0.10,-3.03,1.68,3.47
15.936,0.83,-2.26,0.21,2.42
15.946,1.12,-1.65,-0.99,2.23
15.956,0.43,-1.15,-1.11,1.65
15.966,-1.46,-0.06,-0.66,1.60
15.976,-3.59,1.05,-0.56,3.78
15.986,-4.98,1.19,-0.50,5.14
15.996,-5.44,0.80,-0.03,5.50
16.006,-4.91,0.57,0.69,4.99
16.015,-4.07,-0.22,1.36,4.29
16.026,-3.64,-1.67,1.50,4.27
16.036,-3.44,-3.11,1.27,4.81
16.046,-3.03,-4.52,0.83,5.50
16.056,-2.67,-5.67,0.30,6.27
16.066,-2.51,-5.84,-0.49,6.38
16.075,-2.43,-5.11,-1.21,5.79
16.086,-2.34,-3.79,-1.68,4.76
16.095,-2.26,-2.11,-1.61,3.48
16.106,-2.06,-0.48,-1.16,2.41
16.115,-1.68,0.88,-0.56,1.98
16.125,-1.10,1.83,0.03,2.13
16.135,-0.64,2.10,0.40,2.23
16.145,-0.60,2.29,0.24,2.38
16.155,-0.33,2.45,-0.30,2.49
16.165,0.07,2.05,-0.58,2.14
16.176,0.00,1.06,-0.75,1.29
16.185,-0.34,0.06,-0.89,0.95
16.195,-0.42,-0.36,-1.32,1.43
16.205,-0.19,-0.36,-2.06,2.10
16.215,-0.00,-0.50,-2.83,2.88
16.226,0.24,-0.84,-3.24,3.36
16.235,0.68,-1.42,-3.37,3.72
16.245,0.97,-1.98,-3.33,4.00
16.255,1.21,-2.31,-3.46,4.33
16.265,1.62,-2.14,-3.47,4.38
16.275,2.30,-1.38,-3.25,4.21
16.285,3.18,-0.37,-2.86,4.29
16.295,3.62,0.61,-2.59,4.49
16.305,3.80,1.06,-2.73,4.80
16.315,3.97,1.25,-3.15,5.22
16.325,3.94,1.60,-3.39,5.44
16.335,3.54,1.89,-3.32,5.21
16.345,3.34,1.46,-3.58,5.11
16.355,3.33,0.69,-3.69,5.01
16.365,3.54,0.56,-3.01,4.68
16.375,4.00,0.92,-1.99,4.57
16.385,3.82,1.02,-1.62,4.28
16.395,3.09,0.77,-1.68,3.60
16.405,1.80,0.29,-1.63,2.45
16.415,0.54,-0.29,-0.95,1.13
16.425,-0.59,-0.89,0.06,1.07
16.435,-1.79,-1.51,0.98,2.54
16.445,-2.85,-1.86,1.86,3.88
16.455,-3.67,-2.14,3.27,5.37
16.465,-4.42,-2.00,4.82,6.84
16.475,-4.80,-0.21,4.94,6.89
16.485,-5.06,3.06,3.92,7.09
16.495,-4.96,6.70,3.08,8.89
16.505,-3.61,9.14,2.97,10.27
16.515,-1.03,10.00,3.56,10.66
16.526,1.47,9.93,4.19,10.88
16.535,3.05,8.95,4.65,10.54
16.545,3.80,6.98,4.88,9.33
16.555,4.21,4.37,4.58,7.61
16.565,4.34,1.37,4.14,6.15
16.575,3.41,-1.51,3.14,4.88
16.585,2.29,-5.39,0.88,5.92
16.595,1.37,-6.97,-0.38,7.11
16.605,1.31,-5.27,-1.60,5.66
16.615,1.57,-5.73,-2.05,6.28
16.625,1.62,-6.73,-1.62,7.11
16.635,1.05,-6.79,-1.19,6.97
16.645,0.32,-6.23,-0.80,6.29
16.655,-0.36,-5.76,-0.65,5.81
16.665,-0.95,-5.36,-0.17,5.44
16.674,-1.36,-4.81,0.37,5.02
16.685,-1.69,-4.13,0.81,4.53
16.694,-1.86,-3.25,1.12,3.91
16.705,-1.86,-2.41,1.34,3.33
16.714,-1.79,-1.84,1.34,2.90
16.724,-1.58,-1.54,1.12,2.47
16.734,-1.15,-1.40,0.93,2.03
16.744,-0.52,-1.68,0.96,2.00
16.754,0.24,-2.24,1.01,2.47
16.764,0.90,-2.78,0.89,3.05
16.774,1.35,-2.78,0.58,3.15
16.784,1.62,-1.62,0.17,2.30
16.794,1.94,0.47,-0.36,2.03
16.804,2.53,2.49,-0.65,3.61
16.814,3.75,4.69,-1.87,6.28
16.824,4.65,7.40,-3.92,9.58
16.834,4.89,8.33,-5.07,10.91
16.844,3.45,6.50,-5.28,9.06
16.854,1.61,4.00,-4.96,6.57
16.864,0.70,0.85,-4.86,4.98
16.874,1.18,-1.23,-4.07,4.42
16.884,1.78,-1.90,-2.59,3.67
16.894,1.77,-1.61,-1.38,2.76
16.905,1.33,-0.56,-0.39,1.49
16.914,0.72,2.00,0.73,2.25
16.924,-0.05,7.49,1.96,7.74
16.934,-0.18,13.50,0.69,13.51
16.945,-0.33,15.48,0.48,15.49
16.954,-3.06,12.99,3.35,13.76
16.964,-4.48,7.77,5.11,10.32
16.974,-3.93,2.95,6.15,7.87
16.984,-2.97,-0.00,6.65,7.28
16.994,-1.86,-1.43,6.20,6.63
17.004,-0.43,-1.96,4.41,4.84
17.014,0.67,-2.06,2.53,3.33
17.024,0.62,-1.86,1.13,2.26
17.034,-0.93,-1.68,0.08,1.92
17.044,-3.29,-1.36,-0.52,3.60
17.054,-5.52,-0.88,-1.11,5.69
17.064,-6.47,-0.93,-1.68,6.75
17.074,-6.00,-2.11,-1.36,6.50
17.084,-5.06,-3.18,-0.70,6.02
17.094,-4.18,-3.86,-0.05,5.69
17.104,-3.24,-4.02,0.82,5.23
17.114,-2.63,-3.70,1.19,4.70
17.124,-2.51,-3.52,1.09,4.46
17.134,-2.50,-3.59,0.52,4.41
17.144,-2.44,-3.73,-0.47,4.48
17.154,-2.41,-3.87,-1.24,4.72
17.164,-2.29,-3.66,-1.76,4.67
17.174,-1.96,-2.62,-1.99,3.83
17.184,-1.32,-1.23,-1.60,2.41
17.194,-0.77,0.12,-0.74,1.07
17.204,-0.31,1.86,0.16,1.89
17.214,0.38,3.38,0.97,3.54
17.224,0.62,4.35,1.10,4.53
17.234,0.72,4.79,0.15,4.84
17.244,0.65,4.11,-0.82,4.24
17.254,0.20,2.65,-1.37,2.99
17.264,-0.31,0.96,-1.65,1.94
17.274,-0.74,-0.38,-2.13,2.28
17.284,-0.85,-1.31,-2.96,3.35
17.294,-0.71,-1.98,-3.97,4.49
17.304,-0.32,-2.73,-4.60,5.36
17.314,0.26,-3.29,-4.50,5.58
17.324,0.88,-3.45,-3.85,5.24
17.334,1.72,-3.25,-3.32,4.96
17.344,2.42,-2.49,-2.62,4.35
17.354,2.95,-1.27,-1.94,3.75
17.364,3.50,0.10,-1.49,3.80
17.374,3.40,1.00,-1.41,3.82
17.384,2.92,1.17,-1.99,3.72
17.394,2.55,1.19,-2.74,3.93
17.404,2.27,1.72,-3.25,4.32
17.414,1.93,2.41,-3.30,4.52
17.424,1.90,2.18,-3.41,4.47
17.433,2.20,1.08,-3.54,4.30
17.443,2.73,0.02,-3.18,4.19
17.454,3.56,-0.38,-2.26,4.24
17.463,4.02,-0.51,-1.45,4.31
17.473,3.69,-0.66,-1.15,3.93
17.483,2.62,-0.76,-1.22,2.99
17.493,1.07,-0.91,-0.90,1.67
17.503,-0.22,-1.00,-0.04,1.02
17.513,-1.50,-1.11,0.99,2.11
17.523,-2.60,-1.06,1.85,3.36
17.533,-3.44,-1.07,2.58,4.43
17.543,-4.54,-0.99,3.64,5.90
17.553,-5.15,0.33,4.19,6.65
17.563,-5.45,3.14,4.02,7.46
17.573,-5.01,7.00,3.55,9.31
17.583,-3.19,10.16,2.91,11.04
17.594,-0.60,11.48,2.89,11.86
17.604,1.62,11.39,3.41,12.00
17.613,3.12,9.95,3.95,11.15
17.623,4.20,7.56,4.54,9.77
17.633,4.88,4.73,4.39,8.09
17.643,5.17,1.43,3.58,6.44
17.653,4.47,-2.29,2.27,5.51
17.663,3.15,-7.00,0.41,7.69
17.673,2.22,-6.64,-0.36,7.01
17.683,2.33,-6.49,-2.19,7.23
17.693,2.12,-6.70,-1.82,7.26
17.703,1.85,-7.22,-1.82,7.67
17.713,1.36,-7.30,-1.40,7.55
17.723,0.58,-6.38,-1.05,6.49
17.733,-0.30,-6.02,-0.66,6.06
17.743,-1.05,-5.62,0.00,5.71
17.753,-1.55,-5.08,0.49,5.33
17.763,-1.85,-4.24,0.95,4.72
17.773,-1.99,-3.15,1.34,3.96
17.783,-2.04,-2.03,1.50,3.24
17.793,-1.87,-1.17,1.42,2.62
17.803,-1.69,-0.58,1.23,2.17
17.813,-1.45,-0.20,1.09,1.83
17.823,-1.04,-0.15,1.15,1.56
17.833,-0.52,-0.48,1.25,1.43
17.843,0.09,-1.05,1.23,1.62
17.853,0.57,-1.50,0.91,1.84
17.863,0.84,-1.79,0.41,2.01
17.873,1.02,-1.26,0.22,1.63
17.883,1.45,0.26,0.01,1.47
17.893,2.05,1.60,-0.74,2.70
17.903,2.82,3.36,-1.74,4.72
17.913,3.25,5.31,-3.58,7.19
17.923,3.52,5.70,-4.88,8.29
17.933,2.16,4.46,-5.37,7.31
17.942,0.13,3.65,-5.18,6.34
17.953,-0.54,1.96,-4.43,4.87
17.963,0.37,-0.05,-3.38,3.40
17.973,1.35,-1.04,-2.01,2.63
17.983,1.38,-0.81,-1.14,1.97
17.993,1.02,0.81,-0.39,1.35
18.002,0.90,4.33,0.37,4.44
18.013,0.99,9.39,1.52,9.57
18.023,1.11,13.64,0.60,13.70
18.034,0.63,14.02,-0.10,14.03
18.042,-1.66,10.52,2.00,10.84
18.053,-3.10,5.49,3.66,7.29
18.062,-2.86,0.79,4.80,5.64
18.073,-1.99,-2.46,5.64,6.47
18.082,-1.22,-3.72,5.55,6.79
18.092,-0.38,-3.05,4.35,5.33
18.102,0.68,-2.03,2.75,3.49
18.112,1.26,-1.43,1.59,2.49
18.122,0.56,-0.86,0.65,1.22
18.132,-1.40,-0.11,0.09,1.41
18.142,-3.96,0.75,-0.61,4.07
18.152,-5.70,1.41,-1.51,6.07
18.162,-5.89,0.81,-1.26,6.08
18.172,-5.32,-0.48,-0.02,5.34
18.182,-4.59,-1.30,0.69,4.82
18.192,-3.63,-2.29,1.11,4.43
18.202,-3.23,-3.34,1.21,4.80
18.212,-3.31,-4.06,1.16,5.36
18.222,-3.06,-4.73,0.63,5.67
18.232,-2.87,-5.24,-0.09,5.98
18.242,-2.73,-5.40,-0.82,6.10
18.252,-2.58,-4.70,-1.38,5.54
18.262,-2.54,-3.48,-1.70,4.63
18.272,-2.55,-2.25,-1.66,3.78
18.282,-2.42,-1.05,-1.20,2.90
18.292,-2.03,0.02,-0.52,2.09
18.302,-1.29,0.82,0.16,1.54
18.312,-0.84,1.48,0.59,1.80
18.322,-0.53,2.43,0.38,2.51
18.332,-0.01,2.94,-0.23,2.95
18.342,0.37,2.61,-0.83,2.77
18.352,0.50,1.70,-1.45,2.28
18.362,0.47,0.56,-1.88,2.02
18.372,0.49,-0.32,-2.39,2.46
18.382,0.46,-0.88,-3.25,3.40
18.392,0.53,-1.31,-4.14,4.38
18.402,0.77,-1.71,-4.45,4.83
18.412,1.16,-2.01,-4.33,4.91
18.422,1.69,-2.18,-4.04,4.89
18.432,2.10,-2.12,-3.40,4.52
18.442,2.57,-1.54,-2.72,4.05
18.452,3.30,-0.60,-2.31,4.07
18.462,3.71,0.37,-2.05,4.25
18.472,3.81,0.94,-2.27,4.54
18.482,3.89,1.04,-2.94,4.99
18.492,3.70,1.05,-3.55,5.24
18.502,3.13,1.43,-3.58,4.96
18.512,2.68,1.57,-3.47,4.66
18.522,2.62,1.04,-3.56,4.54
18.532,2.68,0.24,-3.32,4.27
18.542,3.18,-0.14,-2.49,4.04
18.552,3.29,0.02,-1.40,3.58
18.562,2.85,-0.10,-0.91,2.99
18.572,1.96,-0.58,-0.62,2.14
18.582,0.65,-0.87,-0.11,1.09
18.592,-0.57,-0.65,1.06,1.37
18.601,-1.70,0.06,1.80,2.48
18.612,-2.99,0.47,1.99,3.62
18.622,-4.63,0.04,2.51,5.27
18.632,-6.16,0.05,3.60,7.13
18.642,-6.68,1.41,4.28,8.06
18.652,-6.17,3.78,4.73,8.64
18.662,-4.51,6.49,4.58,9.13
18.672,-2.18,8.50,3.74,9.54
18.682,-0.03,9.72,3.34,10.28
18.693,1.73,10.15,3.62,10.92
18.701,3.00,9.59,4.28,10.92
18.712,4.10,8.00,4.55,10.07
18.721,5.11,5.49,4.07,8.53
18.731,5.23,2.20,3.20,6.51
18.742,4.40,-2.02,1.93,5.22
18.752,3.00,-6.30,0.45,6.99
18.761,1.80,-5.80,-0.29,6.08
18.771,1.82,-6.50,-2.11,7.08
18.781,1.89,-7.44,-1.56,7.84
18.791,1.53,-7.33,-1.18,7.58
18.801,0.79,-6.43,-0.92,6.54
18.811,-0.07,-5.81,-0.69,5.85
18.821,-0.86,-5.50,-0.18,5.57
18.831,-1.53,-5.26,0.39,5.49
18.841,-1.98,-4.51,0.87,5.00
18.851,-2.11,-3.46,1.20,4.23
18.861,-2.07,-2.52,1.37,3.54
18.871,-1.98,-1.82,1.42,3.04
18.881,-1.76,-1.39,1.41,2.65
18.891,-1.57,-1.17,1.35,2.38
18.901,-1.49,-1.26,1.40,2.40
18.911,-1.21,-1.66,1.51,2.55
18.921,-0.75,-2.26,1.59,2.87
18.931,-0.25,-2.74,1.46,3.12
18.941,0.09,-2.61,1.00,2.80
18.951,0.24,-1.61,0.50,1.70
18.961,0.56,0.19,0.15,0.60
18.971,1.16,1.50,-0.43,1.95
18.981,1.97,3.57,-1.19,4.25
18.991,3.05,5.98,-2.40,7.13
19.001,3.97,6.44,-3.93,8.53
19.011,3.29,5.10,-4.71,7.68
19.021,1.35,3.71,-4.72,6.15
19.031,0.02,2.08,-4.11,4.61
19.041,-0.08,0.37,-3.51,3.54
19.051,1.10,-0.59,-2.89,3.14
19.061,2.22,-0.76,-2.30,3.29
19.071,2.80,-0.46,-1.67,3.29
19.081,2.89,0.30,-0.92,3.05
19.091,2.65,1.28,-0.15,2.95
19.101,2.15,3.45,0.60,4.11
19.111,1.37,6.66,0.96,6.87
19.121,0.50,10.13,0.05,10.14
19.132,-0.58,11.00,-1.45,11.11
19.141,-1.88,9.34,-0.21,9.53
19.151,-2.57,5.40,2.33,6.42
19.161,-3.04,1.43,3.94,5.17
19.171,-2.99,-1.20,4.93,5.89
19.181,-2.53,-2.42,5.13,6.21
19.191,-2.03,-2.88,4.21,5.49
19.201,-1.37,-2.42,2.74,3.91
19.211,-0.75,-1.76,1.43,2.39
19.220,-0.70,-1.26,0.67,1.59
19.231,-1.01,-0.57,0.63,1.32
19.240,-2.00,0.48,0.97,2.27
19.251,-3.71,1.45,0.93,4.09
19.261,-4.62,1.65,0.52,4.94
19.271,-4.41,1.26,0.64,4.63
19.281,-4.00,0.65,0.94,4.16
19.291,-3.63,-0.10,1.43,3.90
19.300,-3.03,-1.11,1.58,3.59
19.311,-2.39,-2.54,1.10,3.66
19.320,-2.23,-3.81,0.45,4.43
19.331,-2.25,-4.85,-0.45,5.36
19.340,-2.45,-5.36,-1.33,6.04
19.351,-2.56,-5.20,-2.08,6.15
19.360,-2.47,-4.57,-2.54,5.78
19.371,-2.29,-3.34,-2.21,4.61
19.380,-2.11,-1.81,-1.40,3.11
19.391,-2.02,-0.11,-0.26,2.04
19.400,-1.70,1.53,0.78,2.42
19.410,-1.22,2.81,1.22,3.29
19.420,-0.97,3.24,0.74,3.46
19.430,-0.63,2.96,-0.07,3.03
19.440,-0.32,2.35,-0.52,2.42
19.450,-0.49,1.35,-0.80,1.64
19.460,-0.79,0.21,-1.12,1.39
19.470,-0.77,-0.47,-1.59,1.83
19.480,-0.40,-0.83,-2.39,2.56
19.491,0.03,-1.05,-3.23,3.39
19.500,0.42,-1.28,-3.79,4.02
19.510,0.79,-1.62,-3.83,4.23
19.520,1.40,-1.97,-3.59,4.32
19.530,1.83,-2.09,-3.37,4.37
19.540,2.29,-2.20,-3.35,4.62
19.550,2.57,-1.93,-3.17,4.51
19.560,3.10,-1.09,-2.49,4.12
19.570,3.47,-0.06,-1.82,3.92
19.580,3.52,0.75,-1.86,4.05
19.590,3.35,1.12,-2.26,4.20
19.600,3.14,1.29,-2.83,4.42
19.610,2.77,1.54,-3.27,4.55
19.620,2.14,1.83,-3.27,4.32
19.630,1.75,1.81,-3.26,4.12
19.640,1.79,1.20,-3.47,4.08
19.650,1.99,0.56,-3.35,3.93
19.660,2.42,0.47,-2.69,3.65
19.670,2.70,0.55,-1.81,3.30
19.680,2.28,0.16,-1.09,2.53
19.690,1.39,-0.51,-0.65,1.62
19.700,0.36,-1.21,-0.27,1.29
19.710,-0.64,-1.80,0.44,1.96
19.720,-1.63,-1.96,1.49,2.95
19.730,-2.51,-1.57,2.39,3.80
19.740,-3.37,-1.27,3.08,4.74
19.750,-4.39,-1.17,3.89,5.98
19.760,-5.37,-0.02,4.57,7.06
19.770,-5.79,1.89,4.45,7.54
19.780,-5.38,4.45,4.04,8.06
19.790,-3.85,7.17,3.35,8.80
19.800,-1.61,8.98,2.69,9.51
19.810,0.63,9.77,2.55,10.11
19.820,2.56,9.62,2.84,10.35
19.830,4.13,8.56,3.53,10.14
19.840,5.34,6.74,3.79,9.39
19.850,5.77,4.06,3.14,7.73
19.860,5.34,0.72,2.37,5.89
19.870,4.08,-3.50,1.01,5.47
19.880,2.48,-7.10,0.02,7.52
19.890,1.22,-6.15,-0.73,6.32
19.900,1.21,-6.10,-1.95,6.52
19.910,1.25,-6.09,-1.23,6.33
19.920,1.20,-6.33,-0.96,6.52
19.929,0.69,-5.46,-0.49,5.52
19.940,-0.11,-4.88,-0.45,4.90
19.949,-0.79,-4.74,-0.12,4.81
19.960,-1.08,-4.37,0.37,4.52
19.969,-1.15,-3.79,0.73,4.03
19.980,-1.14,-2.81,1.06,3.22
19.990,-1.17,-1.96,1.20,2.58
20.000,-1.36,-1.36,1.15,2.24
20.009,-1.62,-1.00,0.88,2.09
20.020,-1.78,-1.02,0.75,2.19
20.029,-1.77,-1.33,0.81,2.36
20.040,-1.56,-1.72,0.95,2.51
20.049,-1.29,-2.13,0.98,2.68
20.060,-1.02,-2.32,0.97,2.71
20.069,-0.69,-2.15,0.84,2.41
20.079,-0.32,-1.87,0.71,2.03
20.089,0.25,-0.71,0.70,1.03
20.099,1.11,0.93,0.26,1.47
20.109,2.18,2.38,-0.51,3.27
20.119,3.46,3.81,-1.62,5.39
20.129,3.91,4.69,-3.09,6.84
20.139,3.43,4.39,-4.13,6.94
20.149,1.85,3.21,-4.69,5.98
20.159,0.48,1.82,-4.68,5.04
20.169,0.24,0.16,-4.17,4.18
20.179,0.92,-1.05,-3.47,3.74
20.189,1.79,-1.26,-2.65,3.43
20.199,2.00,-0.78,-1.43,2.58
20.209,2.13,0.41,-0.19,2.17
20.219,1.75,2.79,0.78,3.39
20.229,1.59,6.89,1.57,7.24
20.239,1.56,11.44,1.26,11.61
20.250,1.23,14.87,-0.48,14.93
20.260,-0.99,13.99,-0.31,14.02
20.269,-2.45,8.68,2.39,9.33
20.279,-3.08,2.49,4.31,5.85
20.289,-3.07,-2.01,5.12,6.30
20.299,-2.32,-4.23,5.45,7.27
20.309,-1.35,-4.72,4.84,6.89
20.319,-0.49,-4.03,3.59,5.42
20.329,-0.19,-3.03,2.27,3.79
20.339,-0.47,-2.43,0.92,2.64
20.349,-1.13,-1.60,0.23,1.97
20.359,-2.35,-0.37,0.28,2.40
20.369,-4.25,1.29,0.04,4.44
20.379,-5.95,2.33,-0.63,6.42
20.389,-6.83,2.20,-0.58,7.20
20.399,-6.32,1.56,0.49,6.53
20.409,-4.99,0.97,1.64,5.35
20.419,-3.53,0.24,2.44,4.30
20.429,-2.46,-1.14,2.38,3.61
20.439,-2.17,-2.73,1.36,3.74
20.449,-2.13,-3.87,0.20,4.43
20.459,-2.12,-4.35,-0.74,4.90
20.469,-2.05,-4.32,-1.61,5.05
20.479,-1.83,-3.80,-2.02,4.68
20.489,-1.65,-2.83,-1.66,3.67
20.499,-1.60,-1.20,-0.85,2.17
20.509,-1.56,0.86,0.18,1.79
20.519,-1.37,2.87,1.15,3.38
20.529,-1.25,4.18,1.61,4.65
20.539,-1.40,4.54,1.07,4.87
20.549,-1.46,3.91,0.37,4.19
20.559,-1.57,2.31,-0.01,2.79
20.569,-1.99,0.43,-0.26,2.05
20.578,-2.21,-0.90,-0.70,2.49
20.589,-1.94,-1.64,-1.28,2.84
20.598,-1.45,-2.06,-2.04,3.24
20.608,-0.98,-2.20,-3.00,3.85
20.618,-0.61,-2.19,-3.78,4.41
20.629,-0.24,-2.15,-3.83,4.40
20.638,0.19,-2.16,-3.47,4.09
20.649,0.73,-2.14,-2.95,3.72
20.658,0.88,-1.85,-2.42,3.17
20.669,0.81,-1.27,-2.08,2.57
20.679,0.92,-0.56,-1.82,2.11
20.689,0.99,0.21,-1.35,1.69
20.699,0.96,0.77,-1.10,1.66
20.708,1.09,0.96,-1.16,1.86
20.718,1.16,0.92,-1.31,1.98
20.728,1.00,0.78,-1.55,2.00
20.738,0.70,0.56,-1.77,1.99
20.749,0.32,0.34,-1.85,1.91
20.758,-0.04,0.06,-1.88,1.88
20.768,-0.13,-0.33,-1.92,1.95
20.778,0.15,-0.70,-2.02,2.14
20.788,0.58,-0.71,-1.70,1.93
20.798,0.76,0.05,-0.51,0.92
20.808,0.98,0.22,0.19,1.03
20.818,1.81,-1.07,0.25,2.11
20.828,2.72,-2.16,0.61,3.52
20.838,2.23,-1.80,1.57,3.27
20.848,1.04,-0.85,2.27,2.64
20.858,-0.77,-0.56,2.77,2.93
20.868,-2.26,-0.19,3.21,3.93
20.878,-3.22,0.37,3.38,4.69
20.888,-3.80,1.15,3.67,5.41
20.898,-3.95,2.08,3.98,5.98
20.908,-3.67,2.87,4.26,6.31
20.918,-3.05,3.61,4.29,6.39
20.928,-2.38,4.59,4.07,6.57
20.938,-1.61,5.51,3.56,6.75
20.948,-0.56,6.02,2.99,6.74
20.958,0.79,6.29,2.54,6.82
20.968,2.19,6.33,2.49,7.15
20.978,3.54,5.87,2.67,7.35
20.988,5.01,4.61,2.51,7.26
20.998,5.95,2.59,2.16,6.84
21.008,5.46,0.60,2.16,5.91
21.018,4.24,-2.01,1.66,4.98
21.028,3.00,-4.47,1.22,5.52
21.038,2.14,-4.59,0.67,5.11
21.048,2.04,-4.55,-0.06,4.99
21.058,1.90,-4.74,0.13,5.11
21.068,1.45,-4.33,-0.05,4.56
21.078,0.77,-3.63,0.05,3.71
21.088,0.30,-2.99,0.31,3.02
21.098,-0.73,-2.01,0.63,2.23
21.108,-1.00,-1.39,0.67,1.84
21.118,-0.55,-0.86,1.00,1.43
21.128,-1.26,0.02,0.04,1.26
21.138,-1.16,-0.08,0.50,1.26
21.148,-0.37,-0.02,0.92,0.99
21.158,0.19,-0.02,1.60,1.62
21.168,0.04,-0.07,1.85,1.85
21.178,-0.31,-0.42,1.86,1.94
21.188,-0.34,-0.31,1.62,1.68
21.198,-0.01,0.09,1.28,1.28
21.208,0.18,0.12,0.88,0.91
21.218,0.36,0.22,0.32,0.53
21.228,0.51,0.37,-0.27,0.69
21.238,0.60,0.48,-0.66,1.01
21.248,0.70,0.40,-0.72,1.08
21.258,0.80,0.09,-0.74,1.10
21.268,0.86,-0.48,-0.81,1.28
21.278,0.70,-0.86,-0.69,1.31
21.288,0.59,-0.73,-0.62,1.13
21.298,0.50,-0.87,-0.75,1.25
21.307,0.40,-1.14,-0.75,1.42
21.318,0.66,-1.23,0.13,1.40
21.327,1.02,-0.55,-0.11,1.16
21.337,0.87,-0.50,-0.94,1.37
21.347,1.24,-0.50,-0.67,1.49
21.358,1.53,-0.47,-0.60,1.71
21.367,1.84,-0.60,-0.26,1.96
21.377,2.29,-0.88,0.68,2.54
21.387,2.51,-0.48,0.62,2.63
21.397,2.61,-0.33,0.64,2.70
21.407,2.31,-0.18,0.28,2.33
21.418,1.89,-0.10,-0.15,1.90
21.427,1.62,-0.17,-0.45,1.69
21.438,1.46,-0.24,-0.68,1.63
21.447,1.36,-0.19,-0.81,1.60
21.457,1.31,-0.06,-0.76,1.52
21.467,1.23,0.01,-0.65,1.39
21.477,1.07,0.24,-0.34,1.15
21.487,0.84,0.63,0.26,1.09
21.497,0.55,1.29,1.11,1.78
21.507,0.35,2.47,1.67,3.01
21.517,-0.41,4.06,1.24,4.27
21.527,-2.28,5.17,0.45,5.67
21.537,-3.54,5.90,0.42,6.89
21.547,-3.09,5.09,0.57,5.98
21.557,-1.45,3.98,1.39,4.45
21.567,-0.26,2.50,2.04,3.24
21.577,0.52,0.85,2.25,2.46
21.587,0.80,-0.43,2.14,2.32
21.597,0.53,-1.41,1.70,2.27
21.607,0.39,-2.44,1.27,2.78
21.617,0.76,-3.04,1.13,3.33
21.627,1.28,-3.08,0.96,3.47
21.637,1.27,-3.13,0.69,3.44
21.647,1.33,-2.81,0.78,3.21
21.657,0.80,-2.00,1.04,2.39
21.667,-0.09,-1.41,1.04,1.76
21.677,-1.13,-0.58,1.40,1.89
21.687,-2.11,0.47,1.65,2.72
21.697,-3.30,1.51,1.78,4.04
21.707,-5.05,2.66,1.80,5.99
21.717,-6.67,3.01,1.84,7.54
21.727,-7.74,2.19,1.37,8.16
21.737,-8.32,0.86,0.81,8.40
21.747,-7.31,-0.34,1.00,7.38
21.757,-5.32,-0.98,1.22,5.54
21.767,-3.56,-1.30,1.28,4.00
21.777,-2.05,-2.42,1.25,3.41
21.787,-1.06,-2.64,0.16,2.85
21.797,-1.14,-1.88,-0.56,2.27
21.807,-0.82,-0.92,-0.47,1.32
21.817,-0.25,-0.09,-0.55,0.61
21.827,0.12,1.24,-0.11,1.25
21.837,0.35,1.94,0.33,2.00
21.847,0.76,2.02,0.78,2.30
21.857,0.88,2.07,0.94,2.43
21.867,0.73,1.89,0.90,2.22
21.877,0.48,2.07,0.30,2.14
21.887,-0.78,1.38,0.91,1.83
21.897,-0.48,0.57,1.56,1.73
21.906,-1.09,0.41,0.73,1.38
21.917,-1.50,-0.72,0.98,1.93
21.927,-1.55,-1.05,-0.05,1.87
21.937,-1.57,-1.17,-0.66,2.07
21.946,-1.58,-0.67,-1.24,2.12
21.956,-1.62,0.17,-1.47,2.19
21.967,-1.46,0.49,-1.43,2.10
21.977,-1.18,0.26,-1.16,1.67
21.986,-0.93,0.15,-0.91,1.31
21.997,-0.62,0.18,-0.56,0.85
22.006,-0.22,0.36,-0.28,0.51
22.017,0.11,0.45,-0.11,0.48
22.026,0.41,0.44,0.01,0.60
22.037,0.54,0.31,0.14,0.64
22.046,0.34,0.31,0.23,0.52
22.056,-0.20,0.09,0.29,0.36
22.066,-0.78,-0.13,0.22,0.82
22.076,-1.05,-0.26,0.17,1.09
22.086,-1.10,-0.45,-0.02,1.19
22.096,-0.95,-0.56,-0.12,1.11
22.106,-0.78,-0.38,-0.25,0.91
22.116,-0.35,-0.46,-0.41,0.71
22.126,0.00,-0.29,-0.56,0.63
22.136,0.36,-0.13,-0.83,0.91
22.146,0.60,0.24,-0.88,1.09
22.156,0.76,0.60,-0.76,1.23
22.166,0.89,0.90,-0.65,1.42
22.176,1.07,1.15,-0.39,1.62
22.186,1.42,1.54,-0.21,2.10
22.196,1.27,2.34,-0.23,2.67
22.206,1.40,2.42,-0.11,2.80
22.216,1.65,2.63,0.52,3.15
22.226,1.67,3.17,1.06,3.74
22.236,1.59,3.23,0.76,3.68
22.246,1.29,2.73,0.84,3.14
22.256,0.27,1.66,1.64,2.35
22.266,-0.60,0.03,1.77,1.87
22.277,-1.25,-0.93,1.58,2.22
22.286,-1.53,-0.79,1.19,2.09
22.296,-1.38,0.07,1.09,1.76
22.306,-1.09,1.57,1.78,2.61
22.316,-0.49,2.82,1.79,3.38
22.326,-0.42,2.94,1.34,3.26
22.336,-0.43,1.37,-0.15,1.44
22.346,-0.50,0.32,-1.48,1.60
22.356,-1.00,0.47,-0.87,1.41
22.366,-1.17,-0.79,-0.34,1.46
22.376,-1.91,-1.99,-0.82,2.88
22.386,-1.88,-1.18,-1.33,2.59
22.396,-2.05,0.27,-1.68,2.66
22.406,-1.26,2.40,-1.23,2.98
22.416,-0.01,3.17,-0.12,3.18
22.426,1.18,3.99,-0.06,4.16
22.436,2.13,3.07,0.53,3.77
22.446,2.58,0.81,0.76,2.80
22.456,2.53,-1.19,0.62,2.87
22.466,2.11,-2.26,0.96,3.24
22.476,1.65,-2.95,0.97,3.51
22.486,1.14,-3.11,1.25,3.54
22.496,1.09,-1.23,1.12,1.99
22.506,1.25,0.22,0.84,1.53
22.516,1.57,-0.81,0.81,1.94
22.525,2.02,-2.26,0.66,3.11
22.536,2.38,-1.38,1.12,2.97
22.545,2.89,-0.09,1.07,3.08
22.556,2.81,0.36,0.95,2.99
22.566,2.28,1.24,0.76,2.70
22.576,1.87,0.86,0.53,2.13
22.586,2.00,0.34,-0.56,2.10
22.596,1.37,0.28,-0.25,1.42
22.606,0.79,0.07,-0.36,0.87
22.616,0.71,-0.03,-1.43,1.59
22.626,0.36,0.31,-2.34,2.38
22.636,0.28,0.16,-3.11,3.12
22.646,-0.02,0.98,-2.23,2.43
22.656,-0.38,2.85,-1.18,3.11
22.665,-0.45,2.23,-1.29,2.62
22.675,0.03,1.02,-1.54,1.84
22.685,1.39,1.81,-1.96,3.01
22.695,2.92,3.81,-0.15,4.80
22.705,5.33,6.23,4.98,9.59
22.716,6.46,6.49,-1.86,9.35
22.726,4.69,6.68,-4.42,9.28
22.735,4.38,6.12,-3.21,8.18
22.745,4.96,5.02,-3.22,7.76
22.755,5.74,3.87,-3.12,7.59
22.765,5.93,3.75,-2.64,7.50
22.775,5.57,3.44,-3.01,7.20
22.785,4.87,2.87,-3.06,6.43
22.795,3.91,2.86,-2.62,5.51
22.805,2.71,3.57,-2.83,5.30
22.815,1.57,4.03,-3.26,5.42
22.825,0.73,4.18,-3.27,5.36
22.835,0.00,4.05,-2.45,4.74
22.845,-0.47,3.76,-1.63,4.12
22.855,-0.86,3.26,-2.35,4.11
22.865,-1.40,2.71,-2.27,3.80
22.875,-1.91,2.32,-2.56,3.95
22.885,-2.60,1.92,-2.51,4.09
22.895,-3.12,1.06,-2.00,3.86
22.905,-3.63,0.05,-1.30,3.86
22.915,-3.87,-0.20,-1.32,4.09
22.925,-3.86,-0.43,-1.13,4.05
22.935,-4.00,-0.41,-0.54,4.06
22.945,-4.03,-0.22,0.09,4.04
22.955,-3.81,-0.52,1.18,4.02
22.965,-3.82,-0.98,1.74,4.31
22.975,-3.93,-1.27,1.31,4.33
22.985,-3.79,-1.81,0.42,4.22
22.995,-3.74,-2.35,-0.47,4.44
23.005,-3.91,-2.70,-0.61,4.78
23.015,-3.99,-2.72,-0.06,4.83
23.025,-3.81,-2.29,0.36,4.46
23.035,-3.14,-1.95,0.84,3.79
23.045,-2.44,-1.99,1.35,3.43
23.055,-1.96,-2.42,1.70,3.55
23.065,-1.95,-3.38,1.90,4.34
23.075,-1.95,-4.64,1.21,5.17
23.085,-1.69,-5.68,-0.64,5.96
23.095,-2.13,-6.17,-0.55,6.55
23.105,-2.63,-5.15,0.93,5.86
23.115,-2.04,-2.16,0.83,3.09
23.125,-1.01,0.04,0.04,1.01
23.135,0.10,1.14,1.30,1.73
23.145,0.98,0.48,2.65,2.87
23.155,1.02,-0.44,3.23,3.41
23.165,1.17,-1.32,2.77,3.28
23.175,1.33,-1.75,0.63,2.29
23.185,0.68,-2.05,0.95,2.36
23.195,0.16,-1.68,1.64,2.35
23.204,0.11,0.21,0.79,0.83
23.215,0.44,1.38,0.64,1.58
23.224,0.84,1.42,2.63,3.10
23.235,1.49,1.90,8.26,8.60
23.244,2.37,1.69,8.08,8.59
23.255,4.62,5.34,6.11,9.33
23.265,7.16,7.56,9.69,14.22
23.275,3.08,2.60,7.02,8.10
23.285,-1.33,-1.19,3.78,4.18
23.295,-3.63,-2.46,-1.01,4.50
23.305,-2.41,-1.02,-1.72,3.13
23.315,3.70,2.25,-2.52,5.01
23.324,0.88,1.34,-5.68,5.90
23.334,-1.98,-1.34,0.61,2.47
23.345,-2.51,-2.83,1.91,4.24
23.355,-1.71,-1.53,1.34,2.66
23.364,-0.66,-0.29,2.87,2.96
23.374,-0.37,0.57,4.36,4.42
23.384,-1.64,0.86,3.54,3.99
23.394,-2.97,0.82,1.35,3.37
23.404,-2.86,1.20,-0.80,3.20
23.414,-1.98,2.12,-2.56,3.87
23.424,-1.24,2.50,-3.24,4.28
23.434,-0.74,2.47,-2.98,3.94
23.444,-0.53,2.07,-2.64,3.40
23.454,-0.51,1.34,-2.47,2.86
23.464,-0.55,1.35,-2.58,2.96
23.474,-0.18,1.46,-3.07,3.40
23.484,0.49,0.87,-3.54,3.68
23.494,1.39,0.27,-3.62,3.89
23.504,1.98,-0.37,-3.69,4.20
23.514,2.34,-0.68,-3.50,4.27
23.524,2.41,-0.77,-2.88,3.84
23.534,2.16,-0.92,-2.29,3.28
23.544,1.89,-0.75,-1.93,2.81
23.554,1.79,-0.41,-1.79,2.57
23.564,1.77,-0.34,-1.63,2.43
23.574,1.70,-0.48,-1.32,2.20
23.584,1.30,-0.50,-0.31,1.43
23.594,0.38,-1.04,0.30,1.15
23.604,0.97,-0.76,0.58,1.36
23.614,0.55,-1.48,1.73,2.34
23.624,0.76,-1.41,1.18,1.99
23.634,0.87,-0.90,1.33,1.83
23.644,0.83,-0.74,0.92,1.44
23.654,1.22,-0.45,0.19,1.31
23.664,1.52,-0.46,-0.23,1.60
23.674,1.50,-0.61,-0.49,1.69
23.684,1.06,-0.52,-0.44,1.26
23.694,0.40,-0.26,-0.23,0.53
23.704,-0.27,-0.01,0.01,0.28
23.714,-0.98,-0.10,0.44,1.08
23.724,-1.98,0.43,0.43,2.07
23.734,-2.52,1.22,0.24,2.81
23.744,-2.10,0.59,0.11,2.18
23.754,-1.02,-0.06,0.36,1.08
23.764,-0.18,-0.39,0.04,0.44
23.774,0.12,-0.34,-0.25,0.44
23.784,0.18,-0.20,-0.55,0.61
23.794,0.13,-0.00,-0.64,0.65
23.804,-0.19,0.05,-0.41,0.46
23.814,-0.63,0.18,0.11,0.67
23.824,-0.75,0.14,0.56,0.94
23.834,-0.72,-0.21,0.63,0.98
23.844,-0.51,-0.35,0.33,0.70
23.854,-0.37,-0.24,-0.16,0.47
23.864,-0.39,0.02,-0.58,0.70
23.874,-0.39,0.16,-0.82,0.92
23.884,-0.26,0.19,-1.28,1.32
23.894,-0.10,0.56,-2.62,2.68
23.903,-0.22,0.26,-1.82,1.85
23.914,-0.48,-0.11,-0.39,0.63
23.924,-0.73,-0.16,1.11,1.33
23.934,-0.93,-0.08,2.27,2.46
23.943,-1.08,-0.02,2.66,2.87
23.954,-0.85,0.05,2.11,2.28
23.964,-0.38,0.72,1.13,1.39
