time,ax,ay,az,atotal
0.000,0.57,-0.14,0.02,0.59
0.010,0.60,-0.25,-0.29,0.71
0.020,0.71,-0.36,-0.41,0.90
0.030,0.87,-0.42,-0.31,1.02
0.040,0.87,-0.31,-0.41,1.01
0.050,0.75,-0.14,-0.26,0.81
0.060,0.58,-0.08,-0.04,0.59
0.070,0.44,0.08,0.05,0.45
0.080,0.39,0.15,0.23,0.48
0.090,0.23,0.12,0.28,0.38
0.100,-0.03,0.05,0.53,0.53
0.110,-0.25,-0.09,0.92,0.96
0.120,-0.29,-0.12,1.05,1.09
0.130,-0.12,0.03,0.96,0.97
0.140,0.15,0.20,0.95,0.98
0.150,0.31,0.31,0.87,0.98
0.160,0.36,0.31,0.59,0.76
0.170,0.47,0.37,0.42,0.74
0.180,0.59,0.50,0.47,0.90
0.190,0.59,0.41,0.38,0.81
0.200,0.51,0.11,0.27,0.59
0.210,0.56,-0.23,0.10,0.61
0.220,0.68,-0.37,-0.16,0.79
0.230,0.96,-0.29,-0.34,1.06
0.240,1.32,-0.17,-0.41,1.40
0.250,1.40,0.00,-0.23,1.42
0.260,1.41,-0.01,-0.11,1.41
0.270,1.32,-0.40,-0.30,1.41
0.280,1.29,-0.89,-0.44,1.63
0.290,1.30,-1.13,-0.41,1.77
0.300,1.30,-1.12,-0.26,1.73
0.310,1.38,-1.03,-0.31,1.75
0.320,1.58,-0.91,-0.32,1.85
0.330,1.81,-0.84,-0.12,2.00
0.340,1.81,-0.98,-0.04,2.06
0.350,1.54,-1.10,0.51,1.96
0.359,0.77,-1.46,1.16,2.01
0.370,-0.14,-1.69,1.80,2.47
0.380,0.08,-2.44,1.53,2.89
0.390,0.36,-2.68,1.90,3.30
0.400,0.19,-2.68,2.55,3.70
0.410,-0.40,-2.31,3.15,3.92
0.419,-0.46,-1.88,3.43,3.94
0.430,-0.07,-1.46,3.51,3.80
0.440,0.47,-1.03,3.23,3.43
0.450,0.81,-0.64,2.93,3.11
0.459,0.70,-0.22,2.94,3.03
0.469,0.37,-0.16,2.65,2.68
0.480,0.20,-0.36,2.40,2.44
0.489,-0.11,-0.51,2.32,2.38
0.500,-0.15,-0.80,1.76,1.94
0.509,0.21,-1.02,1.42,1.76
0.519,0.53,-0.85,1.26,1.61
0.530,0.77,-0.19,1.06,1.32
0.539,0.33,-0.39,-0.02,0.52
0.549,0.52,-0.42,0.03,0.67
0.559,0.83,-0.44,-0.15,0.95
0.569,1.24,-0.43,0.32,1.35
0.579,1.12,-0.43,0.74,1.41
0.589,1.14,-0.52,0.80,1.49
0.600,1.18,-0.50,0.93,1.58
0.609,1.04,-0.77,0.89,1.57
0.619,0.97,-1.56,-0.00,1.84
0.629,0.87,-3.29,-4.21,5.41
0.639,1.36,-3.59,-4.55,5.95
0.649,1.48,-2.06,-1.01,2.73
0.659,1.06,-0.87,0.23,1.39
0.669,1.05,-0.07,0.08,1.05
0.679,1.44,0.98,1.38,2.22
0.689,2.22,1.18,2.19,3.34
0.700,3.12,-0.00,1.51,3.47
0.709,2.93,-0.86,1.03,3.22
0.719,1.08,-0.24,0.83,1.38
0.729,-0.84,0.58,1.29,1.64
0.739,-1.90,0.94,1.23,2.45
0.749,-1.62,1.30,1.27,2.43
0.759,-0.97,1.19,0.93,1.80
0.769,-0.50,0.49,-0.05,0.70
0.779,0.32,0.36,-0.82,0.95
0.789,1.58,-0.10,-1.29,2.04
0.799,2.21,-0.53,-1.60,2.78
0.809,2.19,-0.68,-1.95,3.01
0.819,1.81,-0.61,-1.37,2.35
0.829,1.01,-0.03,-0.59,1.17
0.839,0.04,0.71,-0.79,1.07
0.849,-1.04,1.73,-0.43,2.07
0.859,-2.21,3.26,1.27,4.13
0.869,-3.32,3.92,3.86,6.42
0.879,-4.16,3.05,4.20,6.65
0.889,-5.13,3.21,3.49,6.99
0.899,-5.84,3.67,4.63,8.31
0.909,-3.75,2.22,6.19,7.57
0.919,-0.51,0.13,5.99,6.01
0.929,-0.18,0.07,5.74,5.74
0.939,-1.39,1.66,7.32,7.63
0.949,-0.78,2.50,7.01,7.49
0.959,-0.97,3.24,5.39,6.36
0.969,-2.48,4.24,5.01,7.01
0.979,-4.41,5.53,4.20,8.23
0.989,-5.90,7.01,3.62,9.85
0.999,-6.41,7.50,2.74,10.24
1.009,-6.37,6.96,1.56,9.56
1.019,-6.39,6.58,0.87,9.21
1.029,-6.35,6.72,-0.25,9.25
1.039,-6.55,7.34,-1.12,9.90
1.049,-6.54,8.31,-1.53,10.68
1.059,-5.83,8.75,-0.41,10.52
1.069,-4.84,7.24,-0.21,8.71
1.079,-3.81,5.60,-1.54,6.95
1.089,-2.25,5.61,-3.00,6.75
1.099,-0.26,6.28,-4.46,7.71
1.109,1.54,7.35,-5.13,9.09
1.119,3.42,8.40,-6.45,11.13
1.129,4.95,8.65,-7.68,12.58
1.143,6.08,7.48,-7.64,12.29
1.149,6.61,5.40,-6.73,10.87
1.158,6.92,3.13,-6.68,10.11
1.168,7.67,2.21,-8.83,11.90
1.178,8.29,2.68,-10.83,13.90
1.188,8.66,2.94,-11.65,14.81
1.198,9.17,3.13,-11.25,14.85
1.208,9.61,3.15,-10.54,14.60
1.219,9.87,2.72,-9.82,14.19
1.228,10.01,1.83,-9.01,13.59
1.238,9.64,0.34,-8.31,12.74
1.249,9.23,-1.38,-7.92,12.24
1.258,8.80,-2.76,-7.65,11.98
1.268,8.17,-3.38,-7.11,11.34
1.278,7.63,-2.82,-5.98,10.09
1.288,7.44,-1.88,-4.78,9.04
1.299,7.27,-1.25,-3.36,8.11
1.308,7.45,-0.67,-2.14,7.78
1.318,7.70,-0.56,-1.03,7.79
1.328,7.74,-0.99,0.32,7.81
1.338,7.69,-1.75,0.82,7.93
1.348,7.42,-2.83,0.22,7.95
1.358,5.70,-6.09,3.01,8.87
1.368,2.39,-10.76,2.84,11.38
1.378,2.91,-8.95,5.42,10.86
1.388,3.86,-3.66,7.31,9.04
1.398,2.70,-0.16,7.94,8.39
1.408,1.31,2.14,7.65,8.05
1.418,0.18,3.82,6.47,7.52
1.428,-0.60,4.67,4.09,6.23
1.438,-1.20,5.25,2.51,5.94
1.448,-1.43,4.86,1.55,5.30
1.458,-1.10,4.05,0.95,4.30
1.468,-0.70,3.12,0.92,3.33
1.478,-0.54,1.79,1.08,2.16
1.488,-0.40,0.46,1.18,1.33
1.498,-0.87,-1.01,1.07,1.71
1.508,-1.85,-2.74,0.69,3.38
1.518,-3.01,-4.53,0.71,5.48
1.528,-4.29,-5.80,1.03,7.29
1.538,-4.54,-5.87,0.64,7.45
1.548,-4.53,-5.48,-0.22,7.12
1.558,-4.00,-4.19,0.04,5.79
1.568,-2.91,-2.78,0.26,4.03
1.578,-2.38,-2.73,0.11,3.63
1.588,-1.81,-2.89,-0.42,3.44
1.598,-0.48,-2.29,-1.19,2.63
1.608,1.37,-1.05,-2.56,3.09
1.618,3.36,0.41,-3.74,5.05
1.628,5.70,2.40,-4.55,7.68
1.638,6.46,4.84,-3.88,8.96
1.648,5.90,6.43,-3.44,9.38
1.658,3.88,5.46,-2.20,7.05
1.668,2.49,4.85,-0.42,5.47
1.678,1.45,4.06,1.58,4.59
1.688,0.51,3.13,4.16,5.23
1.698,-0.19,2.40,5.70,6.18
1.708,-0.13,2.33,5.75,6.20
1.718,0.18,2.10,4.79,5.23
1.728,0.13,1.29,3.82,4.03
1.737,0.17,0.49,1.65,1.73
1.748,-0.87,-0.80,-0.20,1.20
1.758,-0.55,-0.84,-2.27,2.48
1.768,-2.22,-1.91,-1.59,3.33
1.777,-2.19,-2.67,-0.89,3.57
1.787,-1.68,-3.00,-1.57,3.77
1.798,-1.64,-2.38,-0.86,3.02
1.807,1.27,1.00,-1.73,2.36
1.818,6.55,7.01,-3.38,10.17
1.828,3.25,1.13,-6.64,7.48
1.837,1.08,-3.70,-4.62,6.02
1.847,-1.51,-7.32,-2.41,7.86
1.857,-4.59,-9.94,-1.91,11.11
1.868,-5.49,-9.15,0.65,10.69
1.877,-2.85,-3.30,2.35,4.96
1.887,-1.29,0.57,3.29,3.58
1.898,-0.93,1.27,3.75,4.07
1.907,-0.29,0.91,2.99,3.14
1.918,-0.35,0.29,2.21,2.26
1.927,0.11,0.59,4.57,4.61
1.937,0.21,-0.16,4.22,4.23
1.947,0.12,-0.13,3.61,3.62
1.957,0.04,0.05,2.49,2.49
1.967,0.55,0.97,0.35,1.16
1.977,1.36,1.69,-1.83,2.84
1.987,2.34,2.29,-3.01,4.45
1.997,2.66,2.41,-4.38,5.66
2.007,0.87,0.82,-3.06,3.29
2.017,-0.01,-0.28,-1.42,1.45
2.027,-0.56,-1.10,-0.36,1.29
2.037,-1.00,-1.86,-0.10,2.11
2.047,-1.47,-2.25,-0.26,2.70
2.057,-1.19,-0.44,-0.18,1.29
2.067,-1.31,1.02,-0.23,1.68
2.077,-1.32,1.06,-0.41,1.74
2.087,-1.00,1.23,-0.04,1.58
2.097,-1.57,-0.82,-0.02,1.77
2.107,0.55,1.89,-1.00,2.21
2.117,1.42,1.38,-0.14,1.99
2.127,0.49,-0.68,-0.11,0.85
2.137,-0.13,-1.39,-0.94,1.68
2.147,-0.88,-2.34,-1.86,3.12
2.157,-0.96,-2.51,-1.33,2.99
2.167,0.03,-1.92,-0.59,2.01
2.177,0.01,-1.92,-0.18,1.93
2.187,-0.62,-0.66,2.43,2.59
2.197,-0.95,-0.87,1.39,1.90
2.207,-1.12,-0.59,0.57,1.39
2.217,-0.26,-0.31,-0.30,0.51
2.227,1.03,-0.91,-1.16,1.80
2.237,1.52,-1.65,-1.94,2.97
2.247,1.44,-0.56,-2.71,3.12
2.257,2.17,1.10,-2.23,3.30
2.267,2.56,0.97,-0.93,2.89
2.277,2.23,-0.22,0.32,2.26
2.287,1.55,-1.23,2.08,2.88
2.297,-0.14,-0.40,4.38,4.40
2.307,-0.97,1.30,4.42,4.71
2.317,-1.10,1.17,2.42,2.90
2.327,-1.20,0.62,0.73,1.53
2.337,-0.70,0.42,-0.73,1.09
2.347,0.94,0.75,-0.45,1.28
2.357,1.18,-0.29,0.49,1.31
2.367,1.31,-0.54,-0.06,1.42
2.377,2.07,0.21,-1.93,2.84
2.386,2.01,0.52,-3.47,4.04
2.397,1.11,-0.13,-3.04,3.24
2.406,0.12,0.55,-0.10,0.57
2.417,-1.92,1.50,3.18,4.00
2.426,-1.68,1.24,2.92,3.60
2.436,-0.48,-0.26,1.49,1.59
2.447,0.53,-0.15,0.83,0.99
2.456,0.66,-0.18,1.07,1.27
2.467,0.85,-0.64,1.33,1.70
2.476,0.87,-1.32,1.07,1.91
2.486,0.28,-1.59,0.89,1.85
2.496,0.12,-1.91,0.33,1.94
2.506,-0.02,-1.84,-0.35,1.88
2.516,0.15,-1.81,-0.54,1.89
2.526,0.64,-1.89,-0.31,2.02
2.536,0.44,-0.81,-0.14,0.94
2.546,0.07,-0.49,0.59,0.77
2.556,0.09,-0.96,0.98,1.38
2.566,0.12,-1.48,0.89,1.73
2.576,-0.02,-1.88,0.83,2.06
2.586,-0.08,-1.92,0.58,2.01
2.596,0.43,-1.53,0.22,1.61
2.606,0.96,-1.48,-0.16,1.77
2.616,0.48,-1.36,-0.15,1.45
2.626,-0.23,-0.17,-0.27,0.39
2.636,-1.55,0.04,0.35,1.59
2.646,-1.87,0.38,0.19,1.92
2.656,-2.19,1.53,-1.41,3.03
2.666,-2.41,2.18,-1.13,3.44
2.676,-1.32,2.50,-0.16,2.83
2.686,-0.42,2.03,-0.21,2.09
2.696,0.18,2.22,-0.58,2.30
2.706,1.20,1.92,-0.47,2.31
2.716,1.38,1.97,0.01,2.41
2.726,0.38,2.44,0.09,2.47
2.736,-0.85,-0.24,0.40,0.97
2.746,-0.40,-1.17,0.59,1.37
2.756,0.27,-0.33,0.95,1.04
2.766,0.18,-0.34,0.63,0.74
2.776,-0.32,-0.25,-0.53,0.66
2.786,-0.01,0.26,-1.48,1.51
2.796,0.46,1.25,-1.56,2.06
2.806,0.65,1.69,-1.26,2.21
2.816,0.20,0.64,-0.33,0.75
2.826,-0.47,0.16,0.54,0.74
2.836,-0.44,0.36,0.91,1.08
2.846,-0.23,0.22,0.88,0.94
2.856,-0.76,-0.21,0.42,0.90
2.866,-1.20,-0.02,-0.38,1.25
2.876,-0.29,1.14,-0.75,1.40
2.886,0.22,1.60,-0.65,1.74
2.896,-0.24,1.18,-0.39,1.27
2.906,-0.60,0.39,0.02,0.71
2.916,-0.53,-0.06,0.72,0.89
2.926,-0.47,0.01,0.73,0.87
2.936,-0.18,-0.23,0.31,0.43
2.946,0.17,-0.21,0.46,0.53
2.956,0.37,-0.10,0.35,0.52
2.966,0.31,0.06,-0.05,0.32
2.976,0.06,0.04,-0.02,0.07
2.986,0.31,0.49,-0.00,0.58
2.996,-0.25,0.51,-0.37,0.68
3.006,-0.67,0.03,-0.13,0.68
3.015,-1.52,-0.56,1.30,2.07
3.026,-2.31,-1.00,2.02,3.23
3.036,-1.75,-1.42,3.20,3.91
3.045,-0.95,-0.98,4.57,4.77
3.055,1.06,-1.95,3.95,4.53
3.066,3.13,0.46,1.57,3.54
3.075,3.99,1.02,-1.51,4.39
3.086,1.05,-3.06,1.82,3.72
3.095,3.84,-1.28,-2.03,4.52
3.105,2.02,-2.02,-2.78,3.98
3.115,-1.07,-3.74,3.76,5.41
3.125,-1.87,1.06,0.24,2.16
3.135,-1.89,-2.42,-3.89,4.95
3.145,0.54,-3.14,-7.48,8.13
3.155,1.88,-0.44,-5.40,5.74
3.165,1.36,1.70,-1.50,2.64
3.175,0.95,2.14,0.81,2.47
3.185,1.77,-0.27,-2.89,3.40
3.195,0.90,-1.66,-3.79,4.23
3.205,-0.32,-1.19,-0.43,1.30
3.215,-0.91,0.86,3.90,4.10
3.225,-0.69,1.20,3.07,3.36
3.235,0.01,1.09,3.12,3.31
3.245,0.78,1.30,2.79,3.17
3.255,0.09,1.71,1.34,2.17
3.265,-0.38,1.80,0.41,1.88
3.275,-0.34,1.43,0.00,1.47
3.285,-0.18,0.76,-0.05,0.78
3.295,-0.30,0.10,0.09,0.33
3.305,-0.03,-0.67,0.26,0.71
3.315,0.77,-1.72,0.26,1.90
3.325,1.08,-2.14,0.33,2.42
3.335,0.67,-1.79,0.30,1.93
3.345,0.21,-0.97,0.41,1.08
3.355,-0.38,-0.03,0.25,0.46
3.365,-0.54,0.24,-0.16,0.61
3.375,-0.77,0.10,-0.77,1.10
3.385,-0.93,0.31,-0.49,1.09
3.395,-0.85,0.32,-0.31,0.96
3.405,-0.98,0.06,-0.11,0.98
3.415,-1.05,-0.45,0.05,1.14
3.425,-0.79,-0.81,-0.16,1.14
3.435,-0.35,-1.12,-0.62,1.33
3.445,-0.19,-1.17,-0.59,1.32
3.455,-0.11,-0.91,-0.38,0.99
3.465,0.02,-1.21,-0.26,1.24
3.475,0.20,-1.45,-0.18,1.47
3.485,0.53,-1.67,-0.12,1.76
3.495,0.54,-1.50,0.35,1.64
3.505,0.26,-1.48,0.84,1.72
3.515,-0.06,-0.97,0.82,1.27
3.525,-0.17,-1.19,-0.16,1.21
3.535,-0.13,-1.76,-1.17,2.12
3.545,-0.15,-0.91,-1.05,1.39
3.555,-0.02,0.48,-0.40,0.63
3.565,-0.36,-1.79,0.12,1.83
3.575,-0.27,-1.50,-0.08,1.52
3.585,-0.32,-1.01,0.38,1.13
3.595,0.06,-1.70,-0.21,1.71
3.605,0.09,-1.10,-0.42,1.18
3.615,0.23,-1.30,-0.36,1.37
3.625,0.21,-2.02,-0.95,2.24
3.634,0.42,-1.62,-0.71,1.82
3.645,0.06,-1.32,-0.24,1.34
3.654,0.05,0.29,-0.27,0.40
3.665,0.23,1.82,-0.96,2.07
3.675,0.41,2.04,-0.45,2.13
3.685,0.34,0.91,-1.01,1.40
3.694,-0.04,0.40,-0.68,0.79
3.704,-0.01,0.06,-0.25,0.26
3.715,-0.27,-0.91,-0.47,1.06
3.724,-0.44,-0.17,0.22,0.52
3.735,-0.42,0.20,0.42,0.63
3.745,-0.59,1.06,0.06,1.21
3.754,-0.91,1.61,-0.81,2.02
3.764,-1.27,3.96,-0.99,4.27
3.774,-2.47,12.21,0.16,12.46
3.784,1.50,9.90,0.58,10.03
3.794,1.65,3.87,-0.41,4.23
3.804,0.29,2.06,-0.57,2.16
3.814,0.52,0.90,-0.29,1.07
3.824,0.37,-0.40,-0.24,0.59
3.835,0.31,-0.83,-0.58,1.06
3.844,0.65,-0.15,-0.88,1.11
3.854,1.15,0.70,-0.91,1.63
3.864,1.39,1.53,-0.28,2.08
3.874,1.69,0.17,-0.24,1.72
3.884,1.77,1.04,-0.97,2.27
3.894,1.67,3.22,-0.79,3.71
3.904,1.38,2.72,-0.59,3.11
3.914,0.10,-0.48,-0.89,1.02
3.924,-2.11,-4.63,-2.39,5.62
3.934,0.49,0.17,-0.65,0.83
3.944,2.32,2.31,0.39,3.29
3.954,1.46,0.64,-0.48,1.67
3.964,1.64,-0.02,-0.74,1.79
3.974,2.23,-0.29,-0.47,2.30
3.984,2.18,-1.23,-0.39,2.53
3.994,2.23,-1.46,-0.61,2.73
4.004,2.04,-1.77,-0.70,2.79
4.014,1.38,-1.88,-1.19,2.61
4.024,1.23,-1.72,-1.59,2.64
4.034,1.15,-1.38,-2.03,2.71
4.044,1.07,-0.75,-2.36,2.70
4.054,1.12,-0.06,-2.46,2.70
4.064,1.04,0.70,-2.47,2.77
4.074,1.16,1.18,-2.30,2.83
4.084,1.62,2.09,-1.90,3.25
4.094,2.09,2.74,-1.71,3.85
4.104,2.22,2.46,-1.62,3.69
4.114,1.82,1.31,-1.65,2.78
4.124,0.71,-0.52,-2.21,2.38
4.134,0.07,-2.31,-1.53,2.77
4.144,-0.00,-2.47,-1.03,2.68
4.154,-0.03,-2.23,-1.30,2.58
4.164,0.03,-2.20,-1.56,2.70
4.174,0.11,-2.23,-1.81,2.88
4.184,0.24,-2.38,-2.03,3.14
4.194,0.39,-2.39,-2.17,3.25
4.204,0.67,-2.36,-2.29,3.36
4.214,1.01,-2.28,-2.37,3.44
4.224,1.40,-2.10,-2.42,3.50
4.234,1.88,-1.89,-2.51,3.66
4.244,2.32,-1.59,-2.51,3.77
4.254,2.67,-1.17,-2.33,3.73
4.264,2.88,-0.65,-2.06,3.60
4.274,2.92,-0.08,-1.52,3.29
4.284,2.64,0.64,-0.79,2.83
4.293,2.11,1.34,-0.56,2.56
4.303,1.58,2.58,-1.13,3.23
4.314,1.12,4.77,-2.03,5.30
4.324,0.37,6.34,-2.32,6.76
4.334,-0.40,5.47,-1.30,5.64
4.343,-1.05,3.54,0.22,3.70
4.353,-1.71,2.33,0.91,3.03
4.364,-1.98,1.63,0.78,2.68
4.373,-1.90,1.38,0.41,2.38
4.383,-1.64,1.38,0.32,2.17
4.394,-1.16,1.39,0.21,1.82
4.403,-0.59,1.49,-0.03,1.60
4.413,0.03,1.43,-0.39,1.48
4.423,0.46,1.36,-0.89,1.69
4.433,0.68,1.31,-1.11,1.85
4.443,0.65,1.35,-0.89,1.74
4.453,0.45,1.57,-0.51,1.71
4.463,0.03,1.63,-0.17,1.64
4.473,-0.74,1.41,-0.13,1.59
4.483,-1.83,1.03,-0.24,2.12
4.493,-2.82,0.05,-0.64,2.89
4.503,-3.54,-1.21,-0.98,3.87
4.513,-3.98,-2.11,-1.09,4.63
4.523,-3.74,-2.52,-0.92,4.61
4.533,-2.64,-2.81,-0.50,3.89
4.543,-1.62,-2.87,-0.11,3.30
4.553,-0.87,-2.84,-0.16,2.98
4.563,-0.51,-2.93,-0.65,3.04
4.573,-0.41,-3.11,-1.43,3.44
4.583,-0.29,-3.23,-2.02,3.82
4.593,-0.24,-3.32,-2.25,4.01
4.603,-0.13,-3.08,-2.37,3.88
4.613,-0.18,-2.44,-2.06,3.20
4.623,-0.38,-1.79,-1.53,2.38
4.633,-0.57,-1.11,-1.13,1.68
4.643,-0.68,-0.55,-0.81,1.19
4.653,-0.87,-0.11,-0.68,1.11
4.663,-1.16,0.40,-0.78,1.45
4.673,-1.45,1.07,-1.11,2.12
4.683,-1.53,1.60,-1.38,2.61
4.693,-1.33,1.64,-1.64,2.68
4.703,-1.03,1.18,-2.07,2.60
4.713,-0.46,-0.14,-2.59,2.64
4.723,-0.11,-1.78,-3.07,3.55
4.733,-0.17,-3.08,-3.48,4.65
4.743,0.01,-3.53,-4.22,5.50
4.753,0.91,-2.57,-4.78,5.51
4.763,2.10,-0.70,-4.96,5.43
4.773,3.55,1.03,-4.94,6.17
4.783,4.61,2.14,-4.62,6.87
4.793,4.81,2.60,-4.14,6.86
4.803,4.49,2.95,-3.56,6.44
4.813,3.89,3.16,-2.74,5.72
4.823,3.47,2.25,-1.85,4.53
4.833,3.22,0.43,-1.32,3.51
4.843,3.53,-0.26,-0.82,3.63
4.853,4.08,0.82,-0.08,4.16
4.863,3.96,1.94,-0.04,4.41
4.873,2.39,2.08,-0.74,3.25
4.883,0.69,1.36,-1.46,2.11
4.893,-0.64,0.68,-1.14,1.48
4.903,-1.93,0.25,-0.11,1.95
4.913,-3.31,-0.07,0.93,3.44
4.923,-4.44,-0.69,1.82,4.84
4.933,-5.41,-0.63,3.12,6.28
4.943,-5.97,0.95,4.06,7.28
4.952,-6.08,3.74,3.55,7.97
4.963,-5.69,6.90,2.51,9.29
4.973,-4.27,9.47,2.11,10.60
4.983,-1.87,8.97,3.43,9.78
4.992,0.94,7.63,4.79,9.06
5.003,3.14,6.51,5.30,8.96
5.012,4.12,5.35,5.35,8.62
5.022,4.45,3.62,4.79,7.47
5.032,4.72,0.86,3.79,6.11
5.042,4.56,-3.16,2.70,6.17
5.052,3.45,-5.50,1.88,6.76
5.062,2.70,-4.83,-0.39,5.55
5.072,2.58,-6.02,-1.80,6.79
5.083,2.20,-7.00,-1.69,7.53
5.092,1.52,-7.52,-1.65,7.84
5.102,0.73,-7.35,-1.56,7.54
5.113,0.06,-6.95,-1.14,7.04
5.122,-0.60,-6.56,-0.50,6.61
5.132,-1.20,-6.04,0.17,6.16
5.142,-1.60,-5.43,0.80,5.71
5.152,-1.73,-4.67,1.24,5.13
5.162,-1.55,-3.69,1.47,4.26
5.172,-1.26,-2.76,1.46,3.37
5.182,-1.09,-2.08,1.23,2.65
5.192,-0.98,-1.47,0.70,1.90
5.202,-0.83,-0.94,0.38,1.31
5.212,-0.56,-0.57,0.45,0.92
5.222,-0.17,-0.36,0.69,0.80
5.232,0.29,0.01,0.65,0.71
5.242,0.56,1.07,0.35,1.26
5.252,0.97,2.30,-0.13,2.50
5.262,1.67,3.34,-0.69,3.80
5.272,2.84,4.60,-1.51,5.61
5.282,4.36,5.32,-2.57,7.34
5.292,5.18,4.57,-3.66,7.82
5.302,4.74,3.47,-4.10,7.16
5.312,3.44,2.43,-4.00,5.81
5.322,2.23,1.22,-3.53,4.35
5.332,1.70,-0.27,-3.00,3.45
5.342,1.68,-1.28,-2.30,3.12
5.352,1.54,-1.25,-1.30,2.37
5.362,1.23,-0.36,0.15,1.29
5.372,0.46,1.73,1.63,2.42
5.382,-0.84,6.68,1.45,6.88
5.392,-1.39,12.85,-0.93,12.95
5.403,-2.10,15.20,-1.37,15.41
5.412,-3.34,13.02,2.29,13.63
5.422,-3.78,7.24,4.77,9.46
5.432,-3.74,1.88,5.72,7.09
5.442,-3.18,-1.34,6.03,6.95
5.452,-2.51,-2.48,5.67,6.68
5.462,-1.90,-2.34,4.43,5.36
5.472,-1.49,-1.67,2.86,3.63
5.482,-1.30,-1.14,1.11,2.05
5.492,-1.50,-0.51,-0.30,1.62
5.502,-2.42,0.04,-1.03,2.63
5.512,-3.74,0.31,-1.54,4.06
5.522,-4.35,-0.34,-1.41,4.58
5.532,-4.43,-1.56,-0.38,4.71
5.542,-4.10,-2.44,0.07,4.77
5.551,-3.36,-3.11,0.32,4.59
5.562,-2.86,-3.49,0.58,4.54
5.572,-2.39,-3.72,0.49,4.45
5.582,-2.27,-3.91,0.43,4.54
5.592,-2.08,-4.30,-0.14,4.78
5.602,-1.90,-4.78,-0.87,5.21
5.612,-1.76,-5.19,-1.52,5.68
5.622,-1.81,-4.79,-1.90,5.46
5.632,-1.94,-3.59,-1.72,4.43
5.641,-1.89,-1.82,-1.26,2.91
5.651,-1.72,0.26,-0.47,1.80
5.662,-1.34,2.48,-0.00,2.82
5.671,-0.84,4.00,0.12,4.09
5.682,-0.15,4.19,0.07,4.19
5.691,0.17,3.40,-0.10,3.40
5.702,0.20,2.55,-0.55,2.61
5.712,0.27,1.58,-0.90,1.84
5.721,0.12,0.05,-1.26,1.27
5.731,0.11,-1.31,-1.97,2.37
5.741,0.38,-1.92,-2.79,3.41
5.751,0.82,-1.85,-3.46,4.01
5.761,1.33,-1.51,-3.70,4.21
5.771,1.92,-1.28,-3.58,4.26
5.781,2.48,-1.38,-3.23,4.30
5.791,2.91,-1.47,-2.99,4.43
5.801,3.10,-1.34,-2.91,4.46
5.811,3.06,-0.76,-2.65,4.12
5.821,2.87,0.32,-2.39,3.75
5.831,2.78,1.46,-2.41,3.96
5.841,2.47,2.16,-2.65,4.22
5.851,2.37,2.17,-3.07,4.44
5.861,2.44,1.94,-3.50,4.69
5.871,2.35,1.87,-3.66,4.73
5.881,2.24,1.71,-3.48,4.48
5.891,2.34,0.94,-3.48,4.30
5.901,2.23,0.07,-3.44,4.10
5.911,2.08,-0.23,-2.95,3.61
5.921,2.06,-0.19,-2.24,3.05
5.931,1.68,-0.34,-1.62,2.36
5.941,1.04,-0.85,-1.31,1.88
5.951,0.13,-1.48,-0.94,1.76
5.961,-0.76,-1.80,-0.11,1.96
5.971,-1.43,-1.60,0.92,2.33
5.981,-2.04,-1.18,2.10,3.16
5.991,-2.78,-0.70,3.44,4.47
6.001,-3.90,-0.28,4.83,6.22
6.011,-5.26,0.97,5.08,7.38
6.021,-6.34,3.80,4.44,8.63
6.031,-6.71,7.59,3.19,10.62
6.041,-5.27,9.63,2.64,11.29
6.051,-2.41,9.98,2.74,10.62
6.061,0.42,9.54,2.97,10.01
6.071,2.60,8.64,3.47,9.66
6.081,3.83,7.08,4.26,9.11
6.091,4.57,4.88,4.43,8.02
6.101,5.07,2.43,3.85,6.82
6.111,4.99,-0.41,2.63,5.66
6.121,4.30,-5.07,0.56,6.67
6.131,2.61,-7.18,-0.09,7.65
6.141,1.70,-6.03,-1.59,6.46
6.151,1.41,-6.86,-2.25,7.35
6.161,1.12,-7.59,-1.85,7.89
6.171,0.48,-7.51,-1.53,7.68
6.181,-0.34,-6.89,-1.05,6.98
6.191,-1.04,-6.68,-0.68,6.80
6.201,-1.77,-6.58,-0.08,6.81
6.211,-2.35,-6.04,0.42,6.49
6.220,-2.63,-5.24,0.80,5.92
6.231,-2.63,-4.22,1.22,5.12
6.241,-2.57,-3.22,1.41,4.36
6.251,-2.56,-2.47,1.22,3.76
6.260,-2.65,-1.67,0.90,3.26
6.270,-2.51,-0.86,0.76,2.76
6.280,-1.97,-0.30,1.08,2.27
6.291,-1.16,-0.13,1.66,2.03
6.301,-0.36,-0.06,2.13,2.17
6.310,0.05,0.67,2.05,2.15
6.320,0.36,2.05,1.62,2.64
6.331,1.02,2.98,0.68,3.22
6.340,2.09,4.23,-0.62,4.76
6.350,3.90,5.76,-1.88,7.20
6.360,5.62,6.31,-3.52,9.15
6.370,5.75,5.07,-4.70,8.99
6.380,4.17,3.06,-5.03,7.21
6.390,2.21,1.28,-5.43,6.00
6.400,1.25,-0.34,-5.58,5.73
6.410,1.62,-1.41,-4.90,5.35
6.420,2.28,-1.27,-3.47,4.34
6.430,2.38,-0.73,-2.09,3.25
6.440,1.96,0.32,-0.52,2.05
6.450,1.29,2.69,0.92,3.12
6.460,0.38,7.58,1.70,7.78
6.470,0.10,13.39,0.24,13.39
6.481,-0.67,14.90,0.61,14.93
6.490,-3.24,12.63,3.78,13.58
6.500,-4.77,7.74,5.16,10.45
6.510,-4.45,2.90,5.83,7.89
6.520,-3.26,-0.69,6.18,7.02
6.530,-2.32,-2.35,5.71,6.59
6.540,-1.50,-2.57,4.24,5.18
6.550,-0.67,-2.03,2.69,3.44
6.560,-0.38,-1.43,1.34,2.00
6.570,-1.03,-1.16,-0.11,1.56
6.580,-2.79,-0.58,-0.87,2.98
6.590,-4.75,-0.07,-1.71,5.05
6.600,-5.29,-0.36,-1.88,5.63
6.610,-4.80,-1.47,-0.87,5.09
6.621,-4.29,-2.21,-0.28,4.83
6.630,-3.62,-2.70,0.10,4.51
6.640,-2.59,-2.99,0.64,4.00
6.650,-2.22,-3.21,0.88,4.00
6.660,-2.17,-3.63,0.60,4.27
6.670,-2.16,-4.21,-0.11,4.74
6.680,-2.31,-5.03,-0.74,5.58
6.690,-2.49,-5.44,-1.21,6.10
6.700,-2.42,-4.75,-1.38,5.51
6.710,-2.37,-3.43,-1.06,4.31
6.720,-2.25,-1.43,-0.51,2.72
6.730,-2.07,0.55,0.28,2.16
6.740,-1.84,2.16,0.42,2.87
6.750,-1.27,3.04,0.28,3.31
6.760,-0.87,2.61,0.29,2.77
6.770,-0.64,2.19,-0.20,2.29
6.780,-0.51,1.89,-0.56,2.04
6.790,-0.80,1.12,-0.86,1.62
6.800,-1.07,-0.21,-1.36,1.74
6.810,-1.12,-1.34,-2.01,2.67
6.820,-0.93,-1.77,-2.76,3.40
6.830,-0.44,-1.67,-3.51,3.91
6.840,0.27,-1.35,-3.94,4.17
6.850,1.08,-1.11,-3.90,4.19
6.859,2.10,-1.05,-3.67,4.35
6.869,2.97,-1.06,-3.40,4.64
6.880,3.55,-0.93,-3.26,4.91
6.890,3.66,-0.53,-2.84,4.66
6.899,3.69,0.26,-2.33,4.38
6.909,3.60,1.16,-1.99,4.27
6.919,3.35,1.82,-2.14,4.37
6.930,3.29,2.10,-2.80,4.81
6.939,3.20,2.31,-3.39,5.20
6.949,2.81,2.60,-3.57,5.23
6.959,2.36,2.52,-3.31,4.78
6.969,2.13,1.63,-3.15,4.14
6.979,1.92,0.65,-3.19,3.78
6.989,1.98,0.32,-2.94,3.56
6.999,2.10,0.38,-1.96,2.90
7.009,1.75,0.12,-1.06,2.05
7.019,1.31,-0.55,-0.85,1.65
7.029,0.47,-1.31,-0.85,1.63
7.039,-0.66,-2.12,-0.52,2.28
7.049,-1.41,-2.58,0.29,2.95
7.059,-2.00,-2.52,1.26,3.46
7.069,-2.84,-2.32,2.05,4.20
7.079,-3.63,-2.07,3.11,5.20
7.089,-4.53,-1.72,4.46,6.59
7.100,-5.18,-0.35,5.03,7.23
7.109,-5.69,2.00,4.77,7.69
7.119,-5.71,5.59,3.86,8.88
7.129,-4.60,8.29,2.85,9.90
7.139,-2.17,9.70,2.44,10.23
7.150,0.71,10.29,2.50,10.61
7.159,3.09,10.04,3.07,10.94
7.169,4.63,8.53,4.10,10.54
7.179,5.43,5.71,4.29,8.98
7.189,6.13,2.54,3.62,7.56
7.199,5.98,-0.72,2.84,6.66
7.209,4.99,-5.17,0.93,7.25
7.219,3.30,-8.10,-0.03,8.75
7.229,1.98,-6.61,-1.46,7.05
7.239,1.62,-6.67,-2.60,7.34
7.249,1.53,-6.87,-1.88,7.28
7.259,1.07,-6.51,-1.26,6.72
7.269,0.08,-5.63,-0.88,5.69
7.279,-0.86,-5.18,-0.58,5.29
7.289,-1.52,-4.93,-0.13,5.16
7.299,-1.94,-4.41,0.45,4.84
7.309,-2.20,-3.68,0.93,4.39
7.319,-2.07,-2.75,1.40,3.71
7.329,-1.88,-1.87,1.73,3.17
7.339,-1.76,-1.28,1.61,2.71
7.349,-1.67,-0.86,1.29,2.28
7.359,-1.55,-0.43,1.14,1.97
7.369,-1.15,-0.27,1.27,1.73
7.379,-0.60,-0.49,1.30,1.51
7.389,-0.13,-1.01,1.09,1.49
7.399,0.18,-1.17,0.72,1.38
7.409,0.36,-1.06,0.26,1.14
7.419,0.77,-0.32,-0.04,0.83
7.429,1.58,1.26,-0.38,2.05
7.439,2.58,3.04,-1.36,4.22
7.449,3.91,4.97,-2.62,6.84
7.459,4.86,5.20,-4.14,8.24
7.469,4.89,4.26,-4.93,8.15
7.479,3.37,2.59,-5.08,6.62
7.489,1.51,1.56,-5.01,5.46
7.499,0.81,0.27,-4.56,4.64
7.509,1.25,-0.98,-3.54,3.88
7.519,1.80,-1.34,-2.09,3.07
7.529,1.67,-1.00,-0.85,2.13
7.539,1.23,0.42,0.36,1.35
7.549,0.35,3.86,1.14,4.04
7.559,-0.40,9.78,1.12,9.86
7.569,-0.03,14.98,-0.17,14.98
7.580,-1.34,14.99,1.59,15.13
7.588,-3.85,11.07,3.99,12.38
7.598,-4.58,5.60,5.08,8.84
7.608,-3.85,0.92,5.98,7.17
7.619,-2.99,-1.87,6.25,7.18
7.629,-2.28,-2.62,5.32,6.35
7.638,-1.27,-2.29,3.55,4.41
7.648,-0.28,-1.86,2.26,2.94
7.658,-0.22,-1.61,1.36,2.12
7.668,-1.48,-0.95,0.23,1.78
7.678,-3.68,-0.22,-0.97,3.82
7.688,-5.25,-0.04,-2.12,5.66
7.698,-4.61,-0.87,-1.75,5.01
7.708,-3.60,-1.86,-0.69,4.11
7.718,-2.65,-2.35,-0.45,3.57
7.728,-1.77,-2.58,-0.01,3.13
7.738,-1.34,-2.90,0.35,3.21
7.748,-1.70,-3.33,0.27,3.75
7.758,-2.08,-3.87,0.06,4.39
7.768,-2.31,-4.23,-0.30,4.83
7.778,-2.45,-4.70,-0.57,5.33
7.788,-2.54,-4.99,-0.66,5.64
7.798,-2.61,-4.36,-0.75,5.13
7.808,-2.57,-2.87,-0.45,3.88
7.818,-2.55,-1.18,0.11,2.81
7.828,-2.57,0.74,0.81,2.80
7.838,-2.35,2.41,1.20,3.57
7.848,-1.89,3.08,1.12,3.79
7.858,-1.53,2.80,0.64,3.26
7.868,-1.06,2.25,-0.27,2.50
7.878,-0.61,1.33,-0.94,1.74
7.888,-0.37,0.11,-1.50,1.55
7.898,-0.19,-1.05,-2.19,2.44
7.908,-0.01,-1.67,-2.81,3.27
7.918,0.28,-1.65,-3.43,3.82
7.928,0.74,-1.18,-4.05,4.28
7.938,1.31,-0.67,-4.16,4.42
7.948,2.07,-0.43,-3.76,4.32
7.958,2.82,-0.62,-3.17,4.29
7.968,3.30,-0.71,-2.56,4.24
7.978,3.42,-0.32,-2.00,3.97
7.988,3.65,0.37,-1.93,4.14
7.998,3.72,1.01,-1.81,4.26
8.008,3.37,1.38,-1.93,4.12
8.018,3.06,1.35,-2.50,4.17
8.028,2.73,1.24,-3.36,4.51
8.038,2.26,1.37,-4.07,4.85
8.048,1.68,1.66,-3.96,4.61
8.058,1.23,1.63,-3.48,4.04
8.068,1.35,0.84,-3.45,3.80
8.078,1.36,-0.00,-3.34,3.61
8.088,1.44,-0.26,-2.71,3.08
8.098,1.70,-0.20,-1.66,2.38
8.108,1.66,-0.43,-1.05,2.01
8.118,1.25,-0.91,-0.91,1.80
8.127,0.35,-1.57,-0.79,1.79
8.138,-0.49,-2.22,-0.16,2.28
8.148,-0.97,-2.29,0.88,2.64
8.157,-1.66,-1.72,1.77,2.97
8.167,-2.51,-1.33,2.45,3.75
8.178,-3.50,-0.98,3.72,5.20
8.187,-4.31,-0.43,4.63,6.34
8.198,-4.94,1.02,5.20,7.25
8.207,-5.22,4.25,5.31,8.57
8.217,-4.28,8.09,4.26,10.10
8.228,-2.39,10.61,3.11,11.31
8.237,-0.28,11.71,2.99,12.09
8.249,1.75,11.59,3.26,12.16
8.257,3.16,9.99,3.88,11.17
8.267,4.36,7.14,4.24,9.38
8.278,5.10,3.72,3.74,7.34
8.287,4.96,0.20,2.71,5.65
8.298,4.29,-4.74,0.60,6.42
8.307,2.91,-7.47,-0.18,8.02
8.317,2.09,-6.45,-1.31,6.91
8.327,1.89,-6.96,-2.35,7.59
8.337,1.93,-7.34,-1.74,7.78
8.347,1.43,-7.20,-1.35,7.46
8.357,0.56,-6.46,-1.12,6.59
8.367,-0.33,-5.60,-0.60,5.64
8.377,-1.11,-5.46,0.11,5.58
8.387,-1.71,-5.05,0.83,5.39
8.398,-2.03,-4.28,1.30,4.91
8.407,-2.06,-3.39,1.57,4.27
8.417,-1.77,-2.54,1.79,3.58
8.427,-1.47,-1.97,1.69,2.98
8.437,-1.31,-1.68,1.43,2.57
8.447,-1.31,-1.39,1.07,2.19
8.457,-1.18,-1.46,0.93,2.10
8.467,-0.92,-1.71,0.96,2.16
8.477,-0.54,-2.01,0.96,2.29
8.487,-0.33,-2.19,0.74,2.34
8.497,-0.22,-1.85,0.45,1.92
8.507,-0.11,0.00,0.20,0.23
8.517,0.71,2.01,-0.17,2.14
8.527,2.21,4.63,-0.59,5.16
8.537,4.30,7.51,-2.17,8.92
8.547,6.21,8.11,-4.26,11.07
8.557,6.07,5.74,-4.87,9.67
8.567,4.05,3.54,-4.48,7.00
8.577,2.25,1.74,-3.94,4.86
8.587,1.69,-0.26,-3.60,3.99
8.597,2.07,-1.33,-3.02,3.90
8.607,2.23,-1.15,-2.31,3.41
8.617,1.87,-0.63,-1.65,2.57
8.627,1.19,0.84,-0.52,1.54
8.637,0.29,4.32,0.72,4.39
8.647,-0.75,9.76,1.25,9.87
8.657,-0.74,15.01,-0.37,15.03
8.667,-1.97,14.67,0.02,14.81
8.677,-4.10,10.02,3.12,11.26
8.687,-4.71,4.00,4.54,7.67
8.697,-4.09,-0.95,5.35,6.80
8.707,-2.83,-3.83,5.99,7.65
8.717,-1.98,-4.10,5.69,7.29
8.727,-1.40,-2.81,4.32,5.34
8.737,-0.42,-1.92,2.40,3.10
8.747,0.36,-1.62,0.96,1.92
8.757,0.43,-1.50,-0.17,1.57
8.766,-0.85,-1.17,-0.67,1.60
8.777,-3.24,-0.37,-0.95,3.40
8.787,-5.12,0.12,-1.17,5.26
8.797,-5.29,-0.21,-0.59,5.33
8.807,-4.62,-0.58,-0.09,4.66
8.817,-3.46,-0.93,0.09,3.58
8.826,-2.49,-1.22,0.63,2.84
8.836,-1.99,-1.73,1.12,2.87
8.846,-2.00,-2.42,1.14,3.34
8.857,-1.83,-3.46,0.55,3.95
8.867,-1.78,-4.50,-0.24,4.84
8.877,-2.02,-5.16,-0.76,5.59
8.886,-2.20,-5.03,-1.26,5.63
8.897,-2.26,-4.06,-1.41,4.86
8.906,-2.27,-2.50,-1.07,3.55
8.916,-2.16,-0.83,-0.44,2.36
8.926,-1.98,0.50,0.27,2.06
8.936,-1.73,1.33,0.67,2.29
8.946,-1.11,1.68,0.75,2.15
8.956,-0.80,1.82,0.65,2.09
8.966,-0.72,1.94,-0.01,2.07
8.976,-0.46,1.65,-0.81,1.90
8.986,-0.33,0.75,-1.51,1.72
8.997,-0.46,-0.43,-2.13,2.22
9.006,-0.56,-1.18,-2.52,2.84
9.016,-0.43,-1.34,-2.82,3.16
9.026,-0.14,-1.07,-3.24,3.41
9.036,0.31,-0.94,-3.54,3.68
9.046,0.85,-1.02,-3.46,3.70
9.056,1.36,-1.14,-3.24,3.70
9.066,1.94,-1.12,-2.99,3.74
9.076,2.36,-0.79,-2.51,3.54
9.086,2.99,-0.05,-2.31,3.78
9.096,3.43,0.70,-2.09,4.08
9.106,3.49,1.22,-2.08,4.24
9.116,3.57,1.28,-2.63,4.61
9.126,3.58,1.12,-3.47,5.11
9.136,3.41,1.33,-4.08,5.48
9.146,3.03,1.83,-4.20,5.49
9.156,2.65,2.05,-3.95,5.19
9.166,2.72,1.33,-4.04,5.05
9.176,2.79,0.41,-3.95,4.86
9.186,2.96,0.23,-3.17,4.34
9.196,2.98,0.53,-2.03,3.65
9.206,2.51,0.32,-1.41,2.90
9.216,1.61,-0.49,-1.22,2.07
9.226,0.37,-1.37,-0.86,1.66
9.236,-0.68,-1.92,0.04,2.04
9.246,-1.32,-1.85,1.11,2.53
9.256,-2.09,-1.36,1.98,3.18
9.266,-3.03,-1.02,2.87,4.30
9.276,-4.21,-1.09,4.33,6.14
9.286,-5.29,-0.13,5.47,7.61
9.296,-6.07,2.28,5.74,8.66
9.306,-6.14,6.05,5.05,9.99
9.316,-4.92,9.43,3.81,11.30
9.326,-2.91,10.79,3.45,11.69
9.336,-0.73,11.08,3.34,11.59
9.346,1.49,10.31,3.38,10.95
9.356,3.00,8.35,3.97,9.72
9.366,4.07,5.69,4.10,8.11
9.376,4.63,2.73,3.69,6.52
9.386,4.45,-0.49,2.75,5.25
9.396,3.78,-5.24,0.80,6.51
9.406,2.52,-7.57,0.39,7.99
9.416,1.68,-6.12,-0.79,6.39
9.426,1.51,-6.71,-2.08,7.18
9.436,1.51,-6.97,-1.63,7.32
9.446,1.16,-7.46,-1.28,7.66
9.456,0.39,-6.75,-0.81,6.81
9.466,-0.41,-6.26,-0.64,6.31
9.476,-1.15,-6.20,-0.16,6.30
9.486,-1.61,-5.74,0.52,5.99
9.496,-1.75,-5.06,0.85,5.42
9.505,-1.68,-4.14,1.09,4.60
9.515,-1.57,-3.20,1.17,3.75
9.525,-1.48,-2.60,1.05,3.17
9.535,-1.35,-2.20,0.83,2.71
9.545,-1.26,-1.92,0.66,2.39
9.555,-1.10,-1.77,0.64,2.18
9.565,-0.71,-1.81,0.83,2.12
9.576,-0.22,-1.90,1.08,2.20
9.585,0.12,-1.65,1.14,2.01
9.596,0.26,-0.19,1.07,1.12
9.605,0.63,1.86,0.84,2.14
9.615,1.59,3.37,0.12,3.73
9.625,3.19,5.56,-0.63,6.43
9.635,5.34,7.68,-1.93,9.55
9.645,6.90,7.58,-3.62,10.87
9.655,6.29,5.60,-4.36,9.48
9.665,4.34,3.18,-4.26,6.86
9.675,2.57,1.40,-4.11,5.04
9.685,1.73,-0.25,-4.19,4.54
9.695,1.72,-1.03,-3.80,4.30
9.705,1.73,-0.96,-2.80,3.43
9.715,1.29,-0.42,-1.40,1.95
9.725,0.24,1.23,0.14,1.26
9.735,-1.45,5.47,1.12,5.77
9.745,-2.51,12.08,0.88,12.37
9.756,-1.96,17.45,-1.11,17.59
9.766,-2.78,15.82,0.72,16.07
9.775,-4.14,8.99,3.92,10.65
9.785,-4.29,1.65,4.88,6.70
9.795,-3.63,-3.21,5.41,7.27
9.805,-2.63,-5.40,5.62,8.23
9.815,-1.76,-5.48,5.04,7.65
9.825,-0.98,-4.05,3.71,5.58
9.835,-0.02,-2.76,1.82,3.30
9.845,0.69,-1.94,0.06,2.06
9.855,1.07,-1.43,-1.28,2.20
9.865,0.27,-0.89,-1.79,2.02
9.875,-1.75,-0.06,-1.73,2.46
9.885,-3.96,0.76,-1.70,4.38
9.895,-5.35,1.02,-1.02,5.54
9.905,-5.50,0.55,-0.20,5.53
9.915,-4.69,0.24,0.17,4.70
9.925,-3.58,-0.18,0.89,3.69
9.935,-2.74,-1.15,1.55,3.36
9.945,-2.78,-2.51,1.64,4.09
9.955,-2.81,-3.80,1.09,4.85
9.965,-2.62,-4.81,0.28,5.48
9.975,-2.35,-5.15,-0.35,5.67
9.985,-2.15,-4.67,-0.78,5.20
9.995,-1.99,-3.67,-1.09,4.32
10.005,-1.91,-2.27,-0.98,3.13
10.015,-1.90,-1.00,-0.65,2.24
10.025,-1.77,-0.10,-0.40,1.82
10.034,-1.52,0.55,-0.03,1.62
10.045,-1.18,1.01,0.36,1.60
10.055,-0.95,1.18,0.56,1.61
10.065,-1.03,1.30,0.36,1.70
10.075,-0.95,1.31,-0.21,1.63
10.084,-0.77,0.86,-0.74,1.37
10.094,-0.74,0.04,-1.27,1.48
10.105,-0.89,-0.64,-1.84,2.14
10.115,-0.80,-0.93,-2.43,2.72
10.125,-0.42,-0.91,-3.08,3.24
10.135,-0.00,-0.76,-3.63,3.71
10.145,0.40,-0.83,-3.89,4.00
10.155,0.92,-1.18,-3.73,4.02
10.165,1.26,-1.13,-3.42,3.82
10.174,1.71,-0.89,-3.28,3.80
10.184,1.83,-0.18,-2.92,3.45
10.195,2.33,0.76,-2.55,3.54
10.204,2.89,1.31,-2.30,3.92
10.214,3.26,1.26,-2.24,4.15
10.224,3.45,0.83,-2.40,4.28
10.234,3.40,0.50,-2.94,4.52
10.245,3.13,0.52,-3.47,4.70
10.254,2.57,0.85,-3.43,4.37
10.264,1.97,1.26,-3.03,3.83
10.274,2.14,0.82,-3.13,3.87
10.284,2.67,0.07,-3.32,4.26
10.295,3.13,-0.05,-2.86,4.24
10.304,3.26,0.29,-1.77,3.72
10.314,2.85,0.29,-1.10,3.07
10.324,2.21,-0.16,-1.02,2.44
10.334,1.15,-0.76,-0.97,1.69
10.344,-0.03,-1.25,-0.23,1.28
10.354,-1.12,-1.22,0.84,1.86
10.364,-2.18,-0.71,1.96,3.01
10.374,-3.12,-0.17,2.89,4.25
10.384,-4.21,0.11,3.87,5.72
10.394,-5.14,0.75,4.09,6.61
10.404,-5.98,2.53,4.05,7.65
10.414,-6.21,5.73,3.68,9.22
10.424,-5.30,8.40,3.21,10.44
10.434,-3.45,9.54,3.22,10.64
10.445,-1.09,9.72,3.26,10.31
10.454,1.31,9.07,3.53,9.82
10.464,2.81,7.51,4.15,9.03
10.474,3.74,5.23,4.36,7.76
10.484,4.28,2.69,4.08,6.50
10.494,3.93,0.14,3.48,5.26
10.504,3.39,-3.30,1.92,5.11
10.514,2.56,-7.30,0.71,7.77
10.524,1.59,-6.28,0.17,6.48
10.534,1.50,-5.49,-1.78,5.96
10.544,1.56,-5.95,-1.83,6.42
10.554,1.54,-6.55,-1.57,6.91
10.564,0.94,-6.26,-1.31,6.47
10.574,0.09,-5.66,-1.12,5.77
10.584,-0.72,-5.79,-0.53,5.86
10.594,-1.34,-5.74,0.03,5.90
10.604,-1.82,-5.29,0.49,5.62
10.614,-2.09,-4.54,0.90,5.08
10.624,-2.08,-3.71,1.20,4.42
10.634,-2.05,-2.90,1.31,3.79
10.644,-1.91,-2.20,1.27,3.17
10.654,-1.65,-1.56,1.12,2.53
10.664,-1.28,-1.06,0.97,1.92
10.674,-0.74,-0.98,1.12,1.66
10.683,-0.12,-0.96,1.36,1.67
10.694,0.35,-1.05,1.44,1.81
10.703,0.46,-0.52,1.18,1.37
10.714,0.49,0.92,0.80,1.32
10.724,0.92,2.14,0.15,2.33
10.734,1.87,3.81,-0.62,4.29
10.744,3.52,5.18,-1.43,6.42
10.754,4.58,5.87,-2.59,7.88
10.764,4.45,5.13,-3.51,7.65
10.774,3.13,3.76,-4.03,6.34
10.783,1.65,2.56,-4.52,5.45
10.794,1.10,1.18,-4.65,4.92
10.804,1.65,0.05,-4.33,4.63
10.813,2.41,-0.08,-3.32,4.10
10.823,2.43,0.11,-2.24,3.31
10.833,1.96,0.77,-1.03,2.34
10.843,0.98,2.88,0.31,3.06
10.853,-0.18,7.10,1.27,7.22
10.863,-1.02,12.38,1.13,12.48
10.875,-1.24,15.47,-0.23,15.52
10.883,-3.11,13.46,1.26,13.87
10.893,-4.62,7.61,3.14,9.44
10.903,-4.33,0.99,4.14,6.07
10.913,-3.23,-3.38,5.10,6.92
10.923,-2.25,-5.28,5.52,7.96
10.933,-1.64,-5.44,4.69,7.36
10.943,-0.97,-4.53,3.17,5.61
10.953,0.09,-3.57,1.57,3.90
10.963,0.87,-3.12,0.37,3.26
10.973,1.13,-2.72,-0.63,3.01
10.983,0.12,-2.08,-0.81,2.23
10.993,-1.90,-0.95,-0.76,2.25
11.003,-3.90,0.22,-0.90,4.01
11.013,-4.81,1.00,-0.83,4.98
11.023,-4.75,1.18,-0.33,4.90
11.033,-4.17,1.36,0.19,4.40
11.043,-3.42,0.67,0.68,3.55
11.053,-2.74,-0.64,1.17,3.05
11.063,-2.26,-2.09,1.24,3.32
11.073,-1.87,-3.92,0.53,4.38
11.083,-1.62,-5.39,-0.37,5.64
11.093,-1.60,-5.88,-1.05,6.18
11.103,-1.58,-5.36,-1.75,5.85
11.113,-1.67,-4.27,-1.81,4.94
11.123,-1.66,-2.58,-1.49,3.41
11.133,-1.48,-0.97,-0.96,2.02
11.143,-1.27,0.29,-0.29,1.33
11.153,-0.95,1.14,0.37,1.53
11.163,-0.59,1.59,0.86,1.90
11.173,-0.58,1.97,0.74,2.18
11.183,-0.64,2.18,0.04,2.28
11.193,-0.66,1.97,-0.58,2.16
11.203,-0.83,1.11,-0.98,1.70
11.213,-1.14,0.23,-1.38,1.80
11.223,-1.45,-0.43,-1.86,2.40
11.233,-1.27,-0.71,-2.67,3.04
11.243,-0.85,-1.13,-3.46,3.74
11.252,-0.49,-1.66,-3.72,4.11
11.263,0.04,-2.12,-3.53,4.11
11.273,0.44,-2.25,-3.23,3.96
11.283,0.81,-1.89,-3.21,3.81
11.293,0.96,-0.98,-3.19,3.47
11.303,1.71,-0.00,-3.08,3.52
11.313,2.72,0.78,-2.62,3.85
11.323,3.64,1.09,-2.42,4.51
11.333,4.14,0.96,-2.44,4.90
11.343,4.31,0.95,-2.82,5.24
11.353,3.92,1.61,-2.89,5.13
11.363,3.10,2.26,-2.62,4.64
11.372,2.94,1.63,-2.65,4.28
11.383,3.29,0.62,-2.85,4.40
11.393,3.78,0.33,-2.68,4.65
11.402,3.71,0.69,-1.78,4.17
11.413,3.07,0.83,-1.21,3.40
11.423,2.34,0.64,-1.34,2.77
11.432,1.12,0.27,-1.33,1.76
11.442,-0.42,-0.12,-0.62,0.75
11.452,-1.65,-0.18,0.43,1.72
11.462,-2.76,0.10,1.20,3.01
11.472,-3.95,0.15,1.89,4.38
11.482,-5.46,-0.16,2.99,6.22
11.493,-6.74,-0.07,3.94,7.81
11.502,-7.20,1.32,4.80,8.75
11.513,-6.74,4.06,5.30,9.49
11.522,-5.24,7.38,4.75,10.22
11.532,-3.14,9.33,3.99,10.62
11.543,-1.20,10.01,3.93,10.82
11.553,1.08,9.83,4.00,10.67
11.562,3.03,8.71,4.26,10.16
11.572,4.69,6.57,4.32,9.15
11.582,5.84,3.62,3.62,7.77
11.592,5.94,0.41,2.53,6.47
11.602,5.34,-4.44,0.76,6.99
11.612,3.92,-7.95,0.12,8.87
11.622,2.84,-6.97,-0.91,7.58
11.632,2.34,-7.42,-2.12,8.07
11.642,2.03,-7.70,-1.80,8.17
11.652,1.49,-7.52,-1.28,7.77
11.662,0.69,-6.79,-1.04,6.90
11.672,-0.17,-6.54,-0.73,6.58
11.682,-0.82,-6.21,-0.13,6.26
11.692,-1.15,-5.84,0.37,5.97
11.702,-1.46,-5.03,0.75,5.30
11.712,-1.57,-3.90,1.07,4.34
11.722,-1.65,-2.70,1.22,3.39
11.732,-1.86,-1.66,1.03,2.70
11.742,-2.18,-0.75,0.73,2.42
11.752,-2.43,-0.17,0.48,2.49
11.762,-2.41,-0.04,0.50,2.46
11.772,-1.99,-0.42,0.84,2.20
11.782,-1.40,-1.13,1.02,2.06
11.792,-0.77,-1.71,0.94,2.10
11.802,-0.24,-1.87,0.72,2.02
11.812,0.27,-1.66,0.57,1.78
11.822,0.99,-0.20,0.70,1.23
11.832,2.01,2.15,0.56,3.00
11.842,3.59,4.84,-0.08,6.02
11.852,5.28,6.76,-1.91,8.79
11.862,6.03,7.20,-3.69,10.09
11.872,5.01,5.04,-4.44,8.38
11.882,2.28,3.45,-4.60,6.19
11.892,0.21,2.10,-4.54,5.01
11.902,-0.33,0.03,-4.42,4.44
11.912,0.37,-0.89,-3.55,3.68
11.922,1.11,-0.62,-2.28,2.61
11.932,1.00,-0.07,-1.29,1.64
11.942,0.60,1.72,-0.30,1.85
11.952,0.03,5.74,0.59,5.77
11.962,-0.25,10.51,1.24,10.58
11.973,-0.08,14.11,0.14,14.11
11.982,-0.66,12.39,0.28,12.41
11.992,-2.20,7.25,2.84,8.10
12.001,-3.05,1.88,4.08,5.43
12.012,-3.09,-1.99,4.47,5.78
12.021,-2.36,-3.77,5.01,6.70
12.032,-1.57,-3.66,4.82,6.26
12.042,-0.88,-2.40,3.79,4.58
12.051,-0.41,-1.48,2.38,2.83
12.061,-0.05,-1.07,1.12,1.55
12.071,-0.20,-0.86,0.21,0.90
12.081,-1.37,-0.31,-0.16,1.42
12.092,-3.51,0.77,-0.38,3.62
12.101,-5.35,1.38,-0.61,5.56
12.112,-5.77,0.88,-0.01,5.83
12.121,-4.90,0.28,0.41,4.92
12.131,-3.33,-0.35,0.81,3.44
12.141,-2.24,-1.01,1.51,2.89
12.151,-1.67,-1.96,1.51,2.98
12.161,-1.81,-3.02,1.31,3.76
12.171,-1.86,-4.15,0.57,4.58
12.181,-1.69,-5.04,-0.32,5.32
12.191,-1.57,-5.40,-1.23,5.75
12.201,-1.60,-4.97,-1.90,5.56
12.211,-1.67,-4.02,-2.16,4.86
12.221,-1.86,-2.75,-1.95,3.85
12.231,-1.97,-1.39,-1.39,2.78
12.241,-2.02,-0.06,-0.63,2.12
12.251,-1.89,1.16,0.02,2.21
12.261,-1.55,1.76,0.60,2.42
12.271,-1.38,1.91,0.92,2.53
12.281,-1.29,2.02,0.79,2.52
12.291,-1.10,1.89,0.37,2.22
12.301,-0.69,1.29,-0.09,1.47
12.311,-0.43,0.18,-0.72,0.85
12.321,-0.37,-0.70,-1.48,1.67
12.331,-0.24,-0.95,-2.31,2.51
12.341,0.09,-0.72,-3.11,3.19
12.351,0.46,-0.50,-3.76,3.82
12.361,0.69,-0.42,-4.03,4.11
12.371,1.12,-0.77,-3.93,4.16
12.381,1.52,-0.93,-3.70,4.11
12.391,2.16,-1.10,-3.58,4.33
12.401,2.40,-1.02,-3.45,4.32
12.411,3.20,-0.57,-3.37,4.68
12.421,3.76,0.01,-2.84,4.71
12.431,3.68,0.80,-2.44,4.48
12.441,3.75,1.11,-2.56,4.68
12.451,3.89,0.94,-3.01,5.01
12.461,3.48,1.00,-3.18,4.82
12.471,2.70,1.15,-2.59,3.91
12.481,2.49,0.69,-2.30,3.46
12.491,2.76,-0.09,-2.49,3.72
12.501,3.04,-0.38,-2.33,3.85
12.511,3.20,-0.14,-1.41,3.50
12.521,2.90,0.13,-0.93,3.05
12.531,2.55,0.21,-1.28,2.86
12.541,1.65,0.04,-1.58,2.29
12.551,0.30,-0.28,-1.10,1.17
12.561,-1.05,-0.55,-0.08,1.19
12.571,-2.37,-0.55,0.72,2.54
12.581,-3.42,-0.50,1.33,3.71
12.591,-4.63,-0.70,2.36,5.24
12.601,-5.49,-0.51,3.39,6.47
12.611,-5.83,1.00,4.04,7.16
12.620,-5.66,3.91,4.34,8.14
12.631,-4.64,7.93,3.74,9.92
12.640,-2.98,10.57,3.30,11.47
12.651,-0.84,11.42,3.75,12.05
12.662,1.60,11.27,4.49,12.24
12.670,3.39,9.68,5.22,11.50
12.681,4.66,6.78,5.46,9.87
12.691,5.45,3.42,4.76,8.00
12.700,5.37,-0.19,3.59,6.47
12.710,4.61,-5.63,1.47,7.43
12.720,3.35,-7.54,0.45,8.26
12.731,2.84,-6.30,-1.72,7.12
12.740,2.53,-6.91,-2.53,7.78
12.750,2.14,-7.34,-2.33,7.99
12.760,1.53,-7.13,-1.99,7.56
12.770,0.81,-6.49,-1.63,6.74
12.781,-0.10,-6.26,-1.21,6.38
12.791,-0.96,-6.12,-0.48,6.21
12.800,-1.65,-5.87,0.12,6.09
12.810,-1.99,-5.20,0.69,5.61
12.820,-1.99,-4.04,1.19,4.66
12.830,-1.90,-2.73,1.45,3.63
12.840,-1.89,-1.63,1.30,2.82
12.850,-1.88,-0.80,1.05,2.30
12.860,-1.78,-0.18,0.90,2.01
12.870,-1.58,-0.01,0.90,1.82
12.880,-1.25,-0.24,1.14,1.71
12.890,-0.82,-0.84,1.21,1.69
12.900,-0.39,-1.39,1.03,1.77
12.910,-0.08,-1.45,0.78,1.65
12.920,0.12,-0.87,0.43,0.98
12.930,0.62,0.43,0.16,0.77
12.940,1.68,2.18,-0.28,2.77
12.950,3.27,4.25,-0.82,5.42
12.960,4.61,5.42,-2.21,7.45
12.970,5.10,5.31,-3.71,8.24
12.980,4.07,3.66,-4.43,7.04
12.990,1.85,2.74,-4.63,5.69
13.000,0.45,1.56,-4.49,4.78
13.010,0.53,-0.16,-3.97,4.01
13.020,1.47,-0.82,-2.75,3.22
13.030,1.74,-0.64,-1.67,2.50
13.040,1.15,0.26,-0.62,1.33
13.050,0.25,2.81,0.63,2.89
13.060,-0.76,8.17,1.08,8.28
13.070,-0.92,14.39,0.37,14.42
13.081,-0.26,16.91,-0.57,16.92
13.090,-2.02,13.47,1.76,13.73
13.100,-3.68,6.93,3.99,8.80
13.110,-4.18,0.75,4.57,6.24
13.120,-3.51,-3.35,5.29,7.18
13.130,-2.39,-5.16,5.64,8.01
13.140,-1.48,-4.64,5.11,7.06
13.150,-0.67,-2.84,3.73,4.73
13.160,0.14,-1.96,2.17,2.92
13.170,0.56,-1.41,0.70,1.67
13.180,0.16,-0.67,-0.27,0.74
13.190,-1.54,0.37,-0.71,1.74
13.200,-3.59,1.22,-1.28,4.00
13.210,-4.61,1.41,-1.18,4.96
13.219,-4.43,0.76,-0.41,4.51
13.230,-3.63,-0.11,-0.00,3.64
13.240,-2.91,-0.70,0.39,3.02
13.250,-2.31,-1.62,0.60,2.88
13.260,-2.17,-2.46,0.89,3.40
13.270,-2.16,-3.53,0.64,4.18
13.280,-1.98,-4.58,-0.10,4.99
13.290,-1.87,-5.41,-0.84,5.79
13.300,-1.96,-5.65,-1.31,6.12
13.310,-2.01,-4.97,-1.70,5.63
13.319,-2.05,-3.60,-1.74,4.50
13.330,-2.11,-2.10,-1.32,3.26
13.339,-2.07,-0.69,-0.73,2.30
13.349,-1.82,0.48,-0.18,1.89
13.359,-1.39,1.10,0.22,1.78
13.369,-0.87,1.30,0.56,1.66
13.379,-0.64,1.47,0.55,1.69
13.390,-0.51,1.75,0.05,1.82
13.399,-0.35,1.41,-0.57,1.56
13.409,-0.30,0.35,-1.24,1.32
13.419,-0.21,-0.68,-1.90,2.03
13.429,-0.02,-1.14,-2.53,2.78
13.439,0.36,-1.06,-3.25,3.44
13.449,0.64,-0.85,-3.84,3.98
13.459,0.97,-0.70,-3.94,4.12
13.469,1.61,-0.98,-3.71,4.16
13.479,1.96,-1.40,-3.37,4.14
13.489,2.22,-1.41,-3.18,4.13
13.499,2.23,-0.88,-2.93,3.78
13.509,2.76,-0.03,-2.93,4.03
13.519,3.59,0.84,-2.60,4.51
13.529,4.23,1.43,-2.18,4.97
13.539,4.42,1.73,-2.25,5.25
13.549,4.38,1.81,-2.76,5.49
13.559,3.91,1.99,-2.91,5.26
13.569,2.98,2.04,-2.64,4.47
13.579,2.53,1.22,-2.64,3.86
13.589,2.48,-0.09,-3.02,3.91
13.599,2.32,-0.68,-3.10,3.93
13.609,2.14,-0.40,-2.42,3.25
13.619,1.79,-0.35,-1.68,2.48
13.629,1.27,-0.89,-1.29,2.02
13.639,0.61,-1.58,-0.99,1.96
13.649,-0.33,-2.01,-0.27,2.06
13.659,-1.16,-1.78,0.97,2.33
13.669,-2.04,-1.06,1.92,2.99
13.679,-2.97,-0.26,2.53,3.92
13.689,-4.46,-0.11,3.54,5.70
13.699,-6.15,0.52,4.50,7.63
13.709,-7.24,2.90,4.81,9.16
13.719,-7.45,5.98,4.49,10.55
13.729,-5.98,8.99,3.53,11.36
13.739,-3.67,10.81,3.04,11.81
13.750,-1.37,11.25,3.10,11.75
13.759,1.16,10.44,3.61,11.10
13.769,3.25,8.50,4.50,10.15
13.779,4.93,6.04,4.89,9.21
13.789,5.83,3.41,4.39,8.05
13.799,5.94,-0.28,2.98,6.65
13.809,5.35,-5.94,0.92,8.05
13.819,3.78,-6.75,0.71,7.77
13.829,2.79,-6.18,-1.65,6.98
13.839,2.09,-7.11,-2.24,7.74
13.849,1.74,-7.50,-1.88,7.93
13.859,1.07,-7.30,-1.65,7.56
13.868,0.29,-6.28,-1.35,6.43
13.879,-0.47,-6.00,-0.90,6.09
13.888,-1.28,-5.83,-0.08,5.96
13.899,-1.93,-5.49,0.58,5.85
13.909,-2.37,-5.00,1.02,5.62
13.918,-2.35,-4.23,1.45,5.05
13.929,-2.09,-3.32,1.64,4.25
13.939,-1.60,-2.66,1.57,3.48
13.949,-1.33,-2.16,1.28,2.84
13.959,-1.12,-1.67,0.91,2.20
13.968,-0.72,-1.31,0.91,1.75
13.978,-0.07,-1.37,1.25,1.86
13.989,0.53,-1.67,1.44,2.27
13.999,0.85,-1.64,1.28,2.24
14.008,0.77,0.07,1.05,1.30
14.018,0.88,2.35,0.60,2.57
14.028,1.46,3.99,-0.10,4.25
14.038,2.72,6.37,-1.32,7.05
14.048,4.33,8.43,-3.37,10.06
14.058,4.99,7.53,-4.71,10.19
14.068,3.52,4.63,-4.76,7.52
14.078,1.56,2.19,-4.43,5.18
14.088,0.51,0.03,-4.22,4.25
14.098,0.86,-1.56,-3.69,4.10
14.108,1.71,-1.60,-2.46,3.39
14.118,1.84,-0.97,-1.52,2.58
14.128,1.39,-0.04,-0.60,1.52
14.138,0.83,1.92,0.26,2.11
14.148,0.25,6.59,1.06,6.68
14.158,-0.24,12.02,0.93,12.06
14.169,0.22,14.90,-0.19,14.90
14.179,-1.10,12.82,1.35,12.94
14.188,-2.68,8.09,3.04,9.04
14.198,-3.35,2.62,3.82,5.71
14.208,-2.85,-1.20,4.82,5.72
14.218,-1.78,-2.65,5.23,6.13
14.228,-1.08,-2.19,4.59,5.19
14.238,-0.44,-1.61,3.03,3.46
14.248,0.16,-1.32,1.34,1.89
14.258,0.43,-1.49,0.08,1.55
14.268,-0.22,-1.71,-0.60,1.82
14.278,-2.00,-1.36,-0.68,2.51
14.288,-4.07,-0.89,-0.70,4.22
14.298,-5.18,-0.85,-0.52,5.28
14.308,-5.07,-1.45,0.09,5.27
14.318,-4.35,-1.87,0.31,4.75
14.328,-3.45,-2.11,0.53,4.08
14.338,-2.60,-2.40,0.78,3.62
14.348,-2.24,-2.91,0.83,3.76
14.358,-1.87,-3.65,0.51,4.13
14.368,-1.53,-4.62,-0.31,4.87
14.378,-1.44,-5.32,-1.07,5.61
14.388,-1.62,-5.37,-1.62,5.84
14.398,-1.90,-4.55,-1.88,5.28
14.408,-2.14,-2.94,-1.72,4.03
14.418,-2.15,-0.97,-1.06,2.58
14.428,-2.11,0.75,-0.15,2.24
14.438,-2.19,1.80,0.57,2.89
14.448,-1.97,2.17,0.79,3.03
14.458,-1.68,1.88,0.82,2.65
14.468,-1.74,1.50,0.43,2.34
14.478,-1.61,1.31,-0.16,2.08
14.488,-1.48,0.60,-0.81,1.79
14.498,-1.67,-0.63,-1.45,2.30
14.508,-1.69,-1.34,-2.04,2.97
14.518,-1.34,-1.63,-2.84,3.54
14.527,-0.76,-1.65,-3.73,4.15
14.538,-0.09,-1.55,-4.36,4.63
14.548,0.71,-1.49,-4.36,4.66
14.557,1.64,-1.32,-4.06,4.57
14.568,2.56,-1.16,-3.78,4.72
14.578,3.26,-0.72,-3.02,4.50
14.588,3.90,-0.08,-2.45,4.60
14.598,4.31,0.77,-2.00,4.82
14.608,4.26,1.65,-1.57,4.83
14.618,3.88,2.28,-1.62,4.79
14.627,3.61,2.58,-2.20,4.96
14.637,3.39,2.82,-2.93,5.29
14.648,2.94,2.86,-3.29,5.25
14.657,2.60,2.29,-3.36,4.83
14.668,2.67,1.14,-3.61,4.63
14.678,2.46,0.20,-3.48,4.26
14.687,2.70,0.07,-2.79,3.88
14.698,3.00,0.05,-1.86,3.53
14.707,2.61,-0.44,-1.14,2.89
14.717,1.95,-1.30,-0.92,2.52
14.727,0.89,-1.91,-0.65,2.21
14.737,-0.21,-1.96,0.24,1.99
14.747,-1.10,-1.41,1.09,2.09
14.757,-2.18,-0.95,1.69,2.92
14.767,-3.40,-1.12,2.45,4.33
14.777,-4.68,-1.31,3.43,5.95
14.787,-5.53,-0.13,3.98,6.81
14.797,-6.15,2.26,4.00,7.68
14.807,-5.74,5.65,3.45,8.76
14.817,-4.20,8.58,2.66,9.91
14.827,-2.28,10.47,2.58,11.02
14.837,0.03,11.40,3.13,11.82
14.848,2.11,10.92,4.10,11.85
14.857,3.46,9.09,5.02,10.94
14.867,4.41,6.23,4.90,9.07
14.877,4.88,2.89,3.96,6.92
14.887,4.37,-0.67,2.92,5.30
14.897,3.28,-5.94,0.71,6.82
14.907,1.91,-7.69,-0.21,7.93
14.917,1.66,-6.11,-1.83,6.59
14.927,1.78,-6.46,-2.37,7.11
14.937,1.84,-6.90,-1.83,7.37
14.947,1.20,-6.89,-1.41,7.14
14.957,0.23,-6.73,-1.07,6.82
14.967,-0.42,-6.66,-0.61,6.70
14.977,-1.13,-6.79,-0.04,6.89
14.987,-1.61,-6.19,0.61,6.42
14.997,-1.91,-5.34,1.04,5.76
15.007,-2.09,-4.33,1.46,5.03
15.017,-2.13,-3.35,1.63,4.29
15.027,-2.11,-2.53,1.54,3.64
15.037,-1.93,-1.86,1.36,3.00
15.047,-1.60,-1.33,1.15,2.38
15.057,-1.16,-0.93,1.02,1.81
15.067,-0.56,-1.10,1.11,1.66
15.077,0.10,-1.49,1.00,1.80
15.087,0.67,-1.33,0.55,1.59
15.097,0.92,0.09,0.23,0.96
15.107,1.35,2.06,0.11,2.47
15.117,2.16,3.47,-0.26,4.10
15.127,3.14,5.77,-1.02,6.65
15.136,4.47,8.27,-2.73,9.79
15.147,5.01,8.10,-4.38,10.49
15.156,3.62,6.18,-4.84,8.64
15.166,1.90,3.82,-4.63,6.29
15.177,0.75,1.33,-4.39,4.64
15.187,0.88,-0.67,-4.02,4.17
15.197,1.55,-1.18,-2.94,3.53
15.207,1.52,-0.79,-1.84,2.52
15.217,1.05,-0.16,-0.81,1.33
15.227,0.42,1.21,0.15,1.29
15.236,-0.28,5.24,1.13,5.37
15.247,-1.46,11.25,0.87,11.38
15.257,-1.51,15.19,-1.91,15.39
15.267,-2.40,13.50,-0.45,13.72
15.277,-3.76,8.34,2.63,9.52
15.286,-3.97,2.16,3.94,5.99
15.297,-3.18,-1.89,5.07,6.27
15.307,-2.29,-3.45,5.61,6.97
15.316,-1.70,-3.20,4.84,6.04
15.326,-0.84,-2.33,3.18,4.03
15.336,0.40,-2.13,1.53,2.65
15.346,1.36,-2.43,0.25,2.80
15.356,1.04,-2.74,-0.71,3.02
15.366,-0.65,-2.65,-0.92,2.88
15.376,-3.11,-2.28,-0.87,3.95
15.386,-5.01,-1.69,-0.77,5.35
15.396,-5.54,-1.47,-0.28,5.74
15.406,-4.95,-1.43,-0.05,5.16
15.416,-3.81,-1.27,0.29,4.02
15.426,-2.72,-1.34,0.93,3.17
15.436,-2.47,-1.66,1.35,3.27
15.446,-2.39,-2.41,1.27,3.62
15.456,-2.05,-3.67,0.46,4.23
15.466,-1.94,-4.70,-0.39,5.10
15.476,-2.05,-5.06,-0.98,5.55
15.486,-2.14,-4.41,-1.45,5.11
15.496,-2.13,-3.07,-1.56,4.04
15.506,-2.09,-1.42,-1.32,2.85
15.516,-1.96,-0.06,-0.83,2.13
15.526,-1.82,0.69,-0.17,1.96
15.536,-1.59,0.98,0.50,1.94
15.546,-1.27,1.16,1.00,1.99
15.556,-1.27,1.48,0.97,2.18
15.566,-1.27,1.84,0.35,2.26
15.576,-1.16,1.74,-0.37,2.12
15.586,-1.31,0.78,-1.17,1.92
15.596,-1.60,-0.09,-1.73,2.36
15.606,-1.87,-0.64,-2.28,3.02
15.616,-1.66,-0.74,-3.12,3.61
15.626,-1.17,-0.62,-4.06,4.27
15.636,-0.47,-0.69,-4.54,4.61
15.646,0.27,-0.89,-4.45,4.55
15.656,0.92,-0.82,-4.13,4.31
15.666,1.49,-0.30,-3.62,3.92
15.676,2.82,0.37,-3.22,4.30
15.686,4.24,0.79,-2.69,5.08
15.696,5.09,1.19,-2.30,5.71
15.706,5.45,1.23,-2.30,6.04
15.716,5.41,1.01,-2.89,6.22
15.726,4.88,1.10,-3.68,6.21
15.736,3.92,1.57,-4.01,5.83
15.746,3.11,1.58,-3.78,5.14
15.756,2.78,0.55,-3.92,4.84
15.766,2.40,-0.44,-3.92,4.62
15.776,1.94,-0.57,-3.27,3.84
15.786,1.61,-0.43,-2.20,2.76
15.796,1.14,-0.71,-1.36,1.92
15.805,0.51,-1.26,-0.67,1.51
15.816,-0.29,-1.45,0.42,1.54
15.826,-1.18,-0.93,1.45,2.08
15.836,-2.06,0.22,2.76,3.45
15.846,-2.76,1.47,4.11,5.17
15.855,-3.74,2.40,5.10,6.76
15.866,-4.50,2.46,5.78,7.73
15.876,-4.60,2.52,5.85,7.86
15.886,-4.47,3.22,5.21,7.58
15.896,-3.98,5.05,3.62,7.37
15.906,-2.88,6.89,1.74,7.67
15.916,-1.64,8.39,1.13,8.62
15.925,0.06,9.18,1.84,9.36
15.936,1.96,9.11,2.67,9.70
15.945,3.19,7.91,2.96,9.03
15.956,3.93,5.41,2.61,7.17
15.965,4.04,1.87,2.08,4.91
15.975,3.86,-3.38,0.67,5.17
15.986,2.98,-6.86,1.07,7.55
15.996,2.17,-7.07,0.59,7.42
16.005,2.01,-8.28,-1.10,8.59
16.015,1.68,-8.22,-0.89,8.44
16.025,1.30,-8.40,-0.81,8.54
16.035,0.65,-7.20,-0.12,7.23
16.045,-0.09,-6.12,-0.03,6.12
16.055,-0.87,-5.84,0.11,5.91
16.065,-1.46,-5.31,0.62,5.54
16.075,-1.77,-4.90,0.84,5.28
16.085,-1.91,-4.39,1.14,4.92
16.095,-1.98,-3.88,1.18,4.51
16.105,-2.11,-3.55,0.87,4.22
16.115,-2.22,-3.20,0.53,3.93
16.125,-2.41,-2.75,0.26,3.67
16.135,-2.55,-2.21,0.35,3.39
16.145,-2.35,-1.87,0.77,3.10
16.155,-1.84,-1.46,1.22,2.65
16.165,-1.25,-0.60,1.33,1.92
16.175,-0.62,0.78,1.11,1.49
16.185,0.19,2.67,0.84,2.80
16.195,1.25,4.07,0.17,4.27
16.205,2.70,5.89,-0.73,6.52
16.215,4.52,7.27,-2.16,8.83
16.225,5.71,6.76,-3.57,9.54
16.235,5.00,4.56,-3.94,7.83
16.245,3.10,3.09,-4.00,5.92
16.255,1.64,1.82,-4.10,4.77
16.265,1.34,0.32,-4.32,4.53
16.275,2.10,-0.63,-4.16,4.71
16.285,2.76,-0.84,-3.59,4.60
16.295,2.71,-0.44,-2.78,3.91
16.305,2.45,0.08,-1.69,2.97
16.315,2.34,0.17,-0.34,2.37
16.325,1.75,2.56,1.24,3.34
16.335,0.24,6.82,1.69,7.02
16.345,-1.03,11.75,-0.80,11.82
16.356,-2.24,14.72,-0.96,14.92
16.365,-3.59,13.52,2.31,14.17
16.375,-4.42,8.15,4.93,10.50
16.385,-4.27,2.79,6.33,8.13
16.395,-3.69,-0.31,6.83,7.77
16.405,-3.31,-2.01,5.70,6.89
16.415,-2.64,-3.05,3.65,5.44
16.425,-1.92,-3.21,2.08,4.28
16.435,-1.64,-3.43,0.84,3.89
16.444,-2.10,-3.46,0.10,4.05
16.455,-3.29,-2.92,-0.09,4.40
16.465,-4.47,-2.09,-0.48,4.96
16.475,-4.57,-1.79,-0.83,4.98
16.485,-3.57,-2.11,-0.59,4.19
16.495,-2.84,-2.12,-0.26,3.55
16.505,-2.65,-2.01,0.33,3.34
16.515,-2.43,-1.93,0.58,3.16
16.525,-2.35,-1.70,0.89,3.04
16.535,-1.83,-2.26,0.53,2.95
16.544,-1.48,-3.62,-0.23,3.92
16.554,-1.78,-4.86,-1.04,5.28
16.565,-2.15,-5.11,-1.53,5.75
16.574,-2.42,-4.68,-1.71,5.54
16.585,-2.68,-3.36,-1.48,4.55
16.594,-2.49,-1.04,-0.83,2.82
16.604,-2.00,1.31,0.19,2.40
16.615,-1.62,3.06,0.90,3.58
16.624,-1.08,3.36,0.73,3.60
16.634,-0.72,2.69,0.17,2.79
16.644,0.09,2.29,-0.47,2.34
16.654,0.78,1.63,-0.85,2.00
16.664,0.43,0.56,-1.05,1.26
16.674,-0.43,-0.52,-1.24,1.41
16.685,-0.72,-1.08,-1.69,2.13
16.694,-0.52,-1.27,-2.47,2.83
16.704,-0.19,-1.35,-3.23,3.51
16.714,0.35,-1.40,-3.72,3.99
16.724,0.95,-1.65,-3.80,4.25
16.734,1.40,-1.93,-3.64,4.35
16.744,1.87,-1.93,-3.62,4.51
16.754,2.18,-1.65,-3.23,4.23
16.764,2.19,-0.76,-2.55,3.44
16.774,2.61,0.40,-2.06,3.35
16.784,2.84,1.37,-1.89,3.67
16.794,3.02,1.78,-2.32,4.20
16.804,3.15,1.61,-3.05,4.67
16.814,3.00,1.66,-3.64,5.00
16.824,2.52,1.92,-3.65,4.83
16.834,2.50,1.36,-3.49,4.51
16.844,2.78,0.08,-3.47,4.45
16.854,3.15,-0.64,-3.20,4.54
16.864,3.69,-0.53,-2.31,4.38
16.874,3.82,-0.30,-1.48,4.11
16.884,3.32,-0.53,-1.20,3.57
16.894,2.25,-0.98,-1.09,2.69
16.904,0.77,-1.02,-0.27,1.31
16.914,-0.66,-0.71,0.94,1.35
16.924,-1.89,-0.08,1.78,2.60
16.934,-2.96,0.32,2.18,3.69
16.944,-4.27,0.13,2.88,5.15
16.954,-5.38,0.54,3.40,6.39
16.964,-6.20,1.69,3.74,7.43
16.974,-6.70,4.36,4.19,9.02
16.984,-5.67,8.30,3.48,10.64
16.994,-3.47,10.81,2.78,11.69
17.004,-1.03,11.57,2.80,11.94
17.014,1.43,11.25,3.42,11.84
17.024,3.18,9.56,4.57,11.07
17.034,4.31,6.95,5.12,9.65
17.044,5.03,3.97,4.77,7.99
17.054,5.01,0.55,3.91,6.38
17.064,4.36,-4.57,1.89,6.60
17.074,2.98,-6.95,1.22,7.66
17.084,2.32,-5.73,-1.19,6.30
17.093,2.08,-6.34,-2.68,7.19
17.104,2.06,-6.54,-2.27,7.22
17.113,1.83,-6.73,-1.84,7.22
17.124,0.83,-6.18,-1.62,6.44
17.134,-0.17,-6.06,-1.44,6.23
17.143,-0.93,-6.14,-0.72,6.25
17.153,-1.56,-5.89,0.12,6.09
17.163,-1.84,-5.38,0.75,5.74
17.174,-1.95,-4.77,1.07,5.26
17.184,-1.81,-3.99,1.38,4.59
17.194,-1.62,-3.38,1.39,3.99
17.203,-1.47,-2.94,1.18,3.50
17.214,-1.40,-2.63,1.03,3.15
17.224,-1.34,-2.34,0.96,2.86
17.233,-1.09,-2.11,1.27,2.69
17.243,-0.67,-2.20,1.64,2.82
17.253,-0.17,-2.33,1.62,2.85
17.263,0.08,-1.44,1.36,1.98
17.273,0.19,0.70,0.99,1.23
17.283,0.54,2.24,0.40,2.34
17.293,1.30,4.39,-0.40,4.59
17.303,2.93,7.64,-1.87,8.40
17.313,4.68,9.20,-3.85,11.01
17.323,4.61,7.58,-4.91,10.15
17.333,2.83,4.94,-5.10,7.64
17.343,1.34,2.31,-4.95,5.63
17.353,0.89,0.10,-4.79,4.87
17.363,1.66,-1.21,-4.46,4.91
17.373,2.71,-1.23,-3.58,4.66
17.383,3.05,-0.54,-2.44,3.94
17.393,2.83,0.20,-1.13,3.05
17.403,2.18,0.80,0.15,2.33
17.413,1.05,3.68,1.53,4.12
17.423,-0.40,8.16,2.12,8.44
17.433,-1.53,13.63,0.60,13.73
17.443,-3.14,15.45,-0.30,15.77
17.453,-4.64,12.22,1.66,13.18
17.463,-5.10,5.59,3.95,8.54
17.473,-4.38,-0.11,5.59,7.10
17.483,-3.28,-2.86,6.74,8.03
17.493,-2.37,-3.54,6.07,7.42
17.503,-1.68,-3.54,4.32,5.84
17.513,-1.02,-3.17,2.54,4.19
17.523,-0.62,-3.07,1.05,3.30
17.533,-0.76,-3.05,-0.06,3.14
17.543,-1.70,-2.46,-0.39,3.01
17.553,-3.21,-1.49,-0.36,3.56
17.563,-4.25,-0.76,-0.51,4.35
17.573,-4.04,-0.48,-0.52,4.10
17.583,-3.10,-0.50,-0.34,3.16
17.593,-2.33,-0.56,0.08,2.39
17.603,-2.23,-0.77,0.47,2.40
17.613,-2.08,-1.10,0.90,2.52
17.623,-1.88,-1.70,0.91,2.69
17.633,-1.79,-2.91,0.11,3.41
17.643,-1.86,-4.31,-0.69,4.74
17.653,-2.11,-5.17,-1.16,5.70
17.663,-2.08,-4.94,-1.67,5.61
17.673,-1.95,-3.88,-1.76,4.69
17.683,-1.85,-2.29,-1.48,3.30
17.693,-1.73,-0.74,-0.91,2.09
17.703,-1.56,0.38,-0.15,1.61
17.713,-1.29,0.86,0.45,1.61
17.722,-0.85,1.05,0.66,1.50
17.733,-0.47,1.19,0.52,1.38
17.742,-0.24,1.45,-0.14,1.48
17.753,-0.03,1.55,-1.02,1.86
17.763,-0.08,1.00,-1.79,2.05
17.773,-0.43,0.24,-2.34,2.39
17.783,-0.71,-0.27,-2.69,2.79
17.792,-0.50,-0.24,-3.05,3.10
17.803,-0.15,-0.08,-3.45,3.45
17.813,0.21,0.01,-3.60,3.61
17.823,0.77,-0.02,-3.45,3.53
17.833,1.08,-0.10,-3.24,3.41
17.843,1.34,-0.25,-3.44,3.70
17.853,1.54,-0.13,-3.35,3.69
17.862,2.39,0.23,-3.00,3.85
17.872,3.34,0.38,-2.60,4.25
17.883,4.00,0.30,-2.37,4.66
17.892,4.27,-0.02,-2.39,4.89
17.902,4.30,-0.32,-2.85,5.16
17.912,3.80,-0.10,-3.10,4.91
17.922,2.93,0.26,-2.84,4.09
17.932,2.65,-0.17,-2.90,3.93
17.942,2.71,-0.84,-3.20,4.28
17.952,2.87,-0.93,-3.15,4.37
17.962,2.94,-0.53,-2.27,3.76
17.972,2.59,-0.51,-1.55,3.06
17.982,1.95,-0.98,-1.21,2.50
17.992,1.04,-1.42,-0.78,1.93
18.002,-0.05,-1.27,0.27,1.30
18.012,-1.14,-0.49,1.14,1.69
18.022,-2.10,0.25,1.61,2.66
18.032,-3.52,0.56,2.39,4.29
18.042,-5.20,0.75,3.53,6.33
18.052,-6.16,1.58,4.53,7.81
18.062,-6.67,3.51,4.84,8.95
18.072,-6.44,6.41,4.55,10.16
18.083,-5.06,9.07,3.43,10.94
18.092,-3.24,10.84,2.83,11.66
18.103,-1.00,11.19,3.32,11.71
18.112,1.44,10.21,4.08,11.09
18.122,3.36,8.48,4.59,10.21
18.132,4.71,6.03,4.47,8.86
18.142,5.40,2.92,3.65,7.14
18.152,5.65,-1.30,1.97,6.12
18.162,5.17,-6.02,0.78,7.97
18.172,3.69,-5.69,-0.05,6.79
18.182,3.41,-6.44,-2.53,7.71
18.192,3.32,-7.49,-2.28,8.51
18.202,2.41,-7.21,-1.81,7.81
18.212,1.37,-6.66,-1.55,6.97
18.222,0.37,-6.51,-0.80,6.57
18.232,-0.67,-6.49,-0.13,6.53
18.242,-1.52,-6.51,0.60,6.71
18.252,-1.84,-5.99,1.51,6.45
18.262,-1.74,-5.33,2.04,5.96
18.272,-1.54,-4.44,2.47,5.31
18.282,-1.22,-3.55,2.58,4.55
18.292,-1.17,-2.87,2.10,3.74
18.302,-1.35,-2.08,1.41,2.85
18.312,-1.59,-0.98,1.05,2.14
18.322,-1.50,-0.31,1.04,1.85
18.332,-1.23,-0.31,1.13,1.70
18.342,-1.07,-0.47,0.90,1.48
18.352,-1.10,-0.31,0.39,1.21
18.362,-0.86,0.68,-0.02,1.10
18.372,0.10,1.69,-0.33,1.72
18.382,1.64,2.94,-0.88,3.48
18.391,3.74,4.76,-1.70,6.29
18.402,5.77,5.66,-3.23,8.70
18.411,6.37,5.08,-4.47,9.29
18.422,4.81,4.02,-4.53,7.74
18.431,3.02,2.98,-3.93,5.79
18.442,2.00,1.75,-3.62,4.49
18.451,1.96,0.03,-3.72,4.21
18.461,2.38,-0.47,-3.23,4.04
18.472,2.39,-0.03,-2.39,3.38
18.482,1.65,0.81,-1.26,2.23
18.491,0.65,2.45,-0.09,2.53
18.501,-0.64,6.10,1.02,6.22
18.512,-1.76,10.88,1.33,11.10
18.521,-1.81,15.12,-0.50,15.24
18.532,-3.09,14.17,0.23,14.51
18.541,-4.44,9.12,2.69,10.50
18.551,-4.47,2.87,3.79,6.53
18.561,-3.46,-1.65,4.78,6.13
18.571,-2.26,-3.93,5.58,7.19
18.582,-1.69,-3.83,4.98,6.50
18.591,-1.22,-3.12,3.40,4.78
18.601,-0.63,-2.94,1.71,3.46
18.611,-0.22,-3.07,0.32,3.10
18.621,-0.32,-3.00,-0.66,3.09
18.631,-0.96,-2.69,-0.82,2.97
18.641,-2.25,-2.07,-0.58,3.11
18.651,-3.80,-1.48,-0.43,4.10
18.661,-4.68,-0.93,-0.33,4.78
18.671,-4.29,-0.57,-0.23,4.33
18.681,-3.52,-0.66,0.11,3.58
18.691,-3.42,-0.64,1.23,3.69
18.701,-3.46,-0.59,2.32,4.21
18.711,-2.96,-1.45,2.60,4.20
18.721,-2.49,-2.72,1.93,4.16
18.731,-1.91,-4.13,0.48,4.58
18.741,-1.47,-5.02,-0.54,5.26
18.751,-1.37,-4.71,-1.25,5.07
18.761,-1.52,-3.51,-1.77,4.21
18.771,-1.75,-1.96,-1.89,3.24
18.781,-1.80,-0.55,-1.61,2.48
18.791,-1.75,0.45,-1.09,2.11
18.801,-1.55,1.13,-0.45,1.97
18.811,-1.12,1.72,0.10,2.06
18.821,-0.79,2.09,0.49,2.29
18.831,-0.76,2.21,0.23,2.34
18.841,-0.62,2.07,-0.59,2.24
18.851,-0.37,1.37,-1.33,1.95
18.861,-0.34,0.08,-1.71,1.75
18.871,-0.63,-0.89,-2.12,2.39
18.881,-0.75,-1.23,-2.60,2.97
18.891,-0.44,-1.28,-3.03,3.32
18.901,-0.20,-1.26,-3.45,3.68
18.911,0.12,-1.38,-3.67,3.92
18.921,0.55,-1.68,-3.55,3.96
18.931,0.56,-1.76,-3.39,3.86
18.941,0.62,-1.44,-3.52,3.86
18.951,1.35,-0.41,-3.25,3.54
18.961,2.68,0.73,-2.51,3.75
18.971,3.63,1.33,-2.12,4.41
18.980,4.04,1.38,-2.14,4.77
18.991,4.03,0.96,-2.41,4.79
19.001,3.69,0.66,-2.81,4.68
19.011,2.92,0.83,-2.96,4.24
19.020,2.16,0.75,-3.15,3.89
19.031,1.76,-0.04,-3.54,3.95
19.041,1.39,-0.67,-3.61,3.92
19.051,1.54,-0.59,-2.95,3.38
19.060,1.78,-0.26,-1.93,2.64
19.071,1.69,-0.56,-1.29,2.19
19.081,1.43,-1.15,-0.82,2.02
19.091,0.74,-1.40,-0.02,1.58
19.100,0.01,-1.01,1.17,1.54
19.111,-0.80,-0.21,1.83,2.01
19.121,-2.00,0.55,2.41,3.18
19.131,-3.41,0.90,3.34,4.86
19.141,-4.70,1.27,4.27,6.48
19.151,-4.94,2.65,4.75,7.35
19.160,-4.72,4.86,4.59,8.19
19.170,-4.11,7.46,3.60,9.25
19.180,-2.78,9.59,2.58,10.31
19.191,-1.05,10.62,2.54,10.97
19.201,0.91,10.63,3.15,11.13
19.210,2.71,9.44,3.66,10.48
19.220,4.04,7.10,3.92,9.06
19.230,4.92,4.25,3.66,7.46
19.240,5.21,1.20,2.69,5.98
19.250,5.03,-3.59,0.95,6.26
19.260,3.69,-5.23,1.21,6.51
19.270,3.07,-5.57,-0.77,6.41
19.281,3.12,-6.87,-1.62,7.72
19.290,2.90,-7.27,-1.27,7.93
19.300,2.08,-6.65,-1.04,7.05
19.310,1.14,-6.17,-1.04,6.36
19.320,0.38,-5.73,-0.54,5.77
19.330,-0.51,-5.66,-0.19,5.69
19.340,-1.34,-5.42,0.35,5.59
19.350,-1.80,-4.64,0.81,5.05
19.360,-1.98,-3.85,1.06,4.45
19.370,-1.86,-3.12,1.26,3.84
19.380,-1.86,-2.63,1.47,3.54
19.390,-2.00,-2.23,1.56,3.38
19.400,-2.15,-2.08,1.66,3.42
19.410,-2.22,-2.05,1.85,3.54
19.420,-1.96,-2.14,2.07,3.56
19.430,-1.55,-2.37,2.12,3.54
19.440,-1.12,-2.46,1.91,3.31
19.450,-0.74,-2.23,1.45,2.76
19.460,-0.45,-1.34,0.93,1.70
19.470,-0.21,0.64,0.36,0.77
19.480,0.38,2.29,-0.66,2.41
19.490,1.28,4.15,-1.80,4.70
19.500,2.74,5.75,-3.10,7.08
19.510,3.75,5.76,-4.26,8.09
19.520,3.55,4.69,-4.22,7.24
19.530,2.06,3.74,-3.75,5.68
19.540,0.94,2.39,-3.45,4.31
19.550,1.01,0.69,-3.14,3.37
19.560,2.08,-0.51,-2.51,3.30
19.570,2.91,-0.56,-1.50,3.32
19.580,2.78,0.52,-0.57,2.89
19.590,2.39,2.65,0.41,3.59
19.600,1.24,6.87,1.02,7.05
19.610,0.48,11.35,0.47,11.37
19.621,0.37,15.04,-0.10,15.05
19.631,-1.01,14.56,0.22,14.60
19.640,-3.05,9.86,1.26,10.40
19.650,-3.33,3.59,1.63,5.16
19.660,-2.81,-1.22,2.16,3.74
19.670,-2.06,-3.88,3.10,5.37
19.680,-1.14,-4.80,3.97,6.33
19.690,-0.30,-4.60,3.92,6.05
19.699,0.12,-4.11,2.81,4.98
19.710,0.29,-3.63,1.45,3.92
19.720,0.37,-3.03,0.34,3.07
19.730,0.27,-2.46,-0.34,2.50
19.740,-0.33,-2.03,-0.25,2.08
19.749,-1.72,-1.26,0.20,2.14
19.760,-3.92,0.08,0.60,3.97
19.770,-6.30,1.43,0.59,6.49
19.780,-8.02,2.47,0.51,8.41
19.789,-7.97,2.85,0.74,8.49
19.799,-6.30,1.93,1.70,6.81
19.809,-4.43,0.41,2.37,5.05
19.819,-3.05,-1.74,1.99,4.04
19.829,-2.21,-3.62,1.26,4.42
19.839,-1.78,-4.42,0.33,4.78
19.849,-1.28,-4.43,-0.70,4.67
19.859,-1.11,-3.94,-1.61,4.40
19.869,-1.05,-3.32,-2.33,4.20
19.879,-0.97,-2.68,-2.36,3.70
19.889,-1.03,-1.78,-1.73,2.69
19.899,-1.19,-0.83,-0.84,1.68
19.909,-1.20,0.19,-0.04,1.22
19.919,-1.04,0.99,0.66,1.58
19.929,-0.91,1.51,1.17,2.12
19.939,-1.07,1.61,1.17,2.26
19.949,-1.35,1.60,0.71,2.21
19.959,-1.41,1.41,0.03,1.99
19.969,-1.28,0.84,-0.51,1.61
19.979,-1.12,0.07,-0.87,1.42
19.989,-0.84,-0.51,-1.42,1.72
19.999,-0.48,-0.74,-2.08,2.26
20.009,0.03,-0.63,-2.66,2.73
20.019,0.53,-0.44,-3.03,3.11
20.029,0.97,-0.41,-3.16,3.33
20.039,1.21,-0.44,-2.90,3.17
20.049,1.23,-0.57,-2.67,2.99
20.059,1.16,-0.90,-2.71,3.08
20.069,1.17,-1.07,-2.38,2.86
20.079,1.33,-0.91,-1.79,2.41
20.089,1.24,-0.52,-1.39,1.94
20.099,1.05,-0.22,-1.15,1.57
20.109,0.87,-0.05,-1.10,1.41
20.119,0.68,0.13,-1.25,1.43
20.129,0.58,0.38,-1.62,1.76
20.139,0.31,0.70,-1.95,2.09
20.149,-0.00,0.80,-2.22,2.36
20.159,-0.03,0.34,-2.66,2.68
20.169,0.16,-0.17,-3.14,3.15
20.179,0.77,-0.27,-3.49,3.58
20.189,1.09,0.31,-3.05,3.25
20.199,1.10,1.26,-1.99,2.60
20.209,1.10,0.73,-1.64,2.11
20.219,1.02,-0.88,-1.62,2.11
20.229,0.74,-2.07,-1.14,2.47
20.238,0.20,-2.25,0.09,2.26
20.249,-0.48,-1.97,1.44,2.48
20.259,-1.18,-1.57,2.43,3.12
20.269,-1.96,-0.86,3.03,3.71
20.279,-2.98,-0.25,3.60,4.68
20.289,-3.92,0.61,4.48,5.98
20.299,-4.30,1.98,5.46,7.23
20.308,-3.64,3.67,5.57,7.60
20.319,-2.45,4.79,4.93,7.30
20.329,-1.04,5.75,3.82,6.98
20.339,0.61,6.64,2.86,7.25
20.348,2.12,7.11,2.60,7.86
20.359,3.56,7.31,2.71,8.57
20.368,4.90,6.93,2.69,8.91
20.379,5.99,5.18,2.33,8.26
20.389,6.60,2.56,1.73,7.29
20.398,6.28,-0.07,1.28,6.41
20.409,5.30,-3.29,0.46,6.26
20.418,3.53,-4.58,0.21,5.78
20.428,2.52,-4.25,-0.62,4.98
20.438,2.58,-4.82,-1.18,5.59
20.448,2.48,-4.02,-0.40,4.74
20.458,2.19,-3.22,-0.02,3.89
20.468,1.55,-2.26,0.31,2.75
20.479,0.77,-1.37,0.49,1.65
20.488,0.26,-0.73,0.43,0.89
20.498,0.04,-0.21,0.31,0.38
20.508,-0.14,0.16,0.20,0.29
20.518,-0.35,0.29,0.14,0.47
20.528,-0.51,-0.01,0.12,0.52
20.538,-0.68,-0.52,0.08,0.86
20.548,-0.96,-1.13,0.07,1.49
20.558,-1.16,-1.86,0.10,2.19
20.568,-1.14,-2.47,0.20,2.72
20.578,-0.99,-2.72,0.29,2.91
20.588,-0.74,-2.70,0.23,2.81
20.598,-0.46,-2.49,0.02,2.53
20.608,-0.11,-2.13,-0.20,2.14
20.618,0.33,-1.61,-0.39,1.69
20.628,0.83,-1.00,-0.45,1.38
20.638,1.42,-0.17,-0.42,1.49
20.648,1.96,0.55,-0.55,2.11
20.658,2.20,1.34,-0.77,2.69
20.668,2.23,1.46,-1.14,2.90
20.678,1.94,1.08,-1.45,2.66
20.688,1.27,0.64,-1.62,2.16
20.698,0.62,0.19,-1.51,1.64
20.708,0.28,-0.32,-1.37,1.43
20.718,0.31,-0.67,-1.32,1.51
20.728,0.59,-0.67,-1.31,1.59
20.738,0.92,-0.36,-0.94,1.37
20.748,1.05,0.12,-0.16,1.06
20.758,0.67,0.85,0.83,1.37
20.768,-0.01,1.99,1.91,2.75
20.778,-0.50,3.83,2.77,4.75
20.788,-0.90,6.14,3.31,7.03
20.798,-1.33,8.34,3.10,9.00
20.808,-1.47,8.88,2.40,9.32
20.818,-1.53,7.20,1.53,7.52
20.828,-1.59,4.60,0.71,4.92
20.838,-1.51,1.86,0.26,2.41
20.848,-1.51,-0.74,-0.04,1.68
20.858,-1.49,-2.66,-0.39,3.07
20.868,-1.33,-3.55,-0.94,3.91
20.878,-0.95,-3.45,-1.57,3.91
20.888,-0.55,-3.07,-2.07,3.74
20.898,-0.40,-2.86,-2.40,3.75
20.908,-0.35,-2.93,-2.42,3.81
20.918,-0.29,-2.94,-2.18,3.67
20.928,-0.37,-2.39,-1.81,3.02
20.938,-0.68,-1.52,-1.43,2.20
20.948,-1.22,-0.71,-1.08,1.78
20.958,-1.81,0.12,-0.75,1.96
20.968,-2.41,1.05,-0.48,2.67
20.978,-3.00,1.75,-0.29,3.48
20.988,-3.54,2.10,-0.22,4.12
20.998,-3.95,2.25,-0.19,4.55
21.007,-3.95,1.95,-0.22,4.41
21.018,-3.47,1.29,-0.41,3.72
21.027,-2.96,0.57,-0.67,3.09
21.037,-2.64,0.04,-0.87,2.78
21.047,-2.34,-0.23,-1.01,2.56
21.057,-1.99,-0.34,-1.09,2.30
21.068,-1.72,-0.49,-1.17,2.14
21.077,-1.49,-0.61,-1.22,2.03
21.088,-1.40,-0.76,-1.23,2.01
21.098,-1.32,-0.88,-1.13,1.95
21.108,-1.31,-0.90,-0.95,1.85
21.117,-1.45,-0.89,-0.84,1.90
21.127,-1.59,-0.77,-0.67,1.89
21.137,-1.61,-0.49,-0.50,1.76
21.147,-1.56,-0.14,-0.36,1.61
21.157,-1.50,0.10,-0.25,1.53
21.167,-1.52,0.20,-0.21,1.55
21.178,-1.51,0.39,-0.33,1.60
21.187,-1.44,0.44,-0.45,1.57
21.197,-1.36,0.53,-0.65,1.60
21.207,-1.17,0.56,-0.84,1.55
21.217,-0.97,0.46,-0.98,1.45
21.227,-0.81,0.35,-1.00,1.33
21.237,-0.76,0.28,-0.93,1.24
21.247,-0.76,0.24,-0.87,1.18
21.257,-0.78,0.18,-0.80,1.13
21.267,-0.81,0.11,-0.76,1.11
21.277,-0.85,0.08,-0.67,1.09
21.287,-0.91,0.10,-0.60,1.09
21.297,-0.98,0.17,-0.56,1.14
21.307,-1.06,0.25,-0.54,1.22
21.317,-1.14,0.29,-0.54,1.29
21.327,-1.20,0.29,-0.55,1.36
21.337,-1.21,0.28,-0.55,1.36
21.347,-1.19,0.27,-0.54,1.33
21.357,-1.16,0.26,-0.49,1.29
21.367,-1.14,0.24,-0.46,1.25
21.377,-1.08,0.19,-0.40,1.16
21.387,-1.03,0.09,-0.36,1.09
21.397,-1.01,-0.05,-0.38,1.08
21.407,-1.06,-0.19,-0.37,1.15
21.417,-1.20,-0.31,-0.38,1.30
21.427,-1.34,-0.33,-0.39,1.43
21.437,-1.43,-0.32,-0.34,1.50
21.447,-1.50,-0.27,-0.29,1.55
21.457,-1.53,-0.20,-0.25,1.56
21.467,-1.47,-0.10,-0.17,1.49
21.477,-1.39,-0.01,-0.09,1.39
21.487,-1.25,0.08,-0.09,1.26
21.497,-1.08,0.16,-0.19,1.11
21.507,-0.94,0.18,-0.32,1.01
21.517,-0.80,0.15,-0.44,0.93
21.527,-0.63,0.12,-0.54,0.84
21.537,-0.47,0.07,-0.64,0.80
21.547,-0.32,0.02,-0.67,0.74
21.557,-0.16,0.00,-0.62,0.64
21.567,0.02,0.06,-0.59,0.59
21.577,0.19,0.21,-0.59,0.65
21.587,0.31,0.40,-0.58,0.78
21.597,0.41,0.62,-0.57,0.93
21.607,0.48,0.75,-0.51,1.03
21.617,0.54,0.79,-0.46,1.07
21.627,0.54,0.75,-0.47,1.03
21.637,0.49,0.65,-0.49,0.95
21.646,0.44,0.52,-0.49,0.84
21.657,0.41,0.34,-0.54,0.76
21.667,0.39,0.13,-0.58,0.71
21.677,0.36,-0.10,-0.67,0.77
21.686,0.36,-0.27,-0.71,0.84
21.696,0.39,-0.38,-0.74,0.92
21.707,0.45,-0.45,-0.81,1.03
21.716,0.51,-0.45,-0.88,1.11
21.727,0.55,-0.39,-0.92,1.14
21.736,0.57,-0.27,-0.96,1.15
21.746,0.55,-0.12,-0.98,1.13
21.756,0.50,0.08,-0.96,1.09
21.766,0.42,0.28,-0.94,1.07
21.776,0.31,0.43,-0.89,1.04
21.786,0.19,0.51,-0.85,1.01
21.796,0.03,0.47,-0.83,0.96
21.806,-0.11,0.37,-0.84,0.93
21.816,-0.24,0.27,-0.79,0.87
21.826,-0.36,0.19,-0.73,0.84
21.836,-0.43,0.11,-0.66,0.80
21.846,-0.50,0.05,-0.58,0.76
21.856,-0.57,0.01,-0.47,0.74
21.866,-0.65,-0.00,-0.36,0.74
21.877,-0.70,-0.00,-0.25,0.74
21.886,-0.76,0.01,-0.12,0.77
21.896,-0.84,0.07,-0.09,0.85
21.906,-0.93,0.09,-0.05,0.93
21.916,-0.99,0.06,-0.04,1.00
21.926,-1.06,0.03,-0.03,1.06
21.936,-1.04,0.01,-0.03,1.04
21.946,-0.99,0.01,-0.01,0.99
21.956,-0.96,0.04,0.02,0.97
21.966,-0.98,0.12,0.03,0.99
21.976,-1.00,0.21,-0.03,1.02
21.986,-0.99,0.29,-0.04,1.04
21.996,-0.96,0.33,0.02,1.01
22.006,-0.91,0.37,0.15,0.99
22.016,-0.80,0.32,0.23,0.89
22.026,-0.61,0.23,0.25,0.70
22.036,-0.44,0.16,0.32,0.56
22.046,-0.28,0.12,0.38,0.49
22.056,-0.20,0.11,0.43,0.49
22.066,-0.23,0.07,0.48,0.54
22.076,-0.24,-0.01,0.47,0.52
22.086,-0.30,-0.10,0.53,0.62
22.096,-0.52,-0.24,0.50,0.76
22.106,-0.32,-0.44,0.73,0.92
22.116,-0.29,-0.26,0.72,0.82
22.126,-0.44,-0.29,0.54,0.76
22.136,-0.54,-0.16,0.30,0.64
22.146,-0.66,-0.23,-0.09,0.71
22.156,-0.62,-0.66,-0.29,0.95
22.166,-0.39,-0.35,-0.15,0.55
22.176,-0.21,-0.21,0.12,0.32
22.186,-0.23,-0.24,0.16,0.37
22.196,-0.23,-0.20,0.04,0.31
22.206,-0.18,-0.12,-0.14,0.25
22.216,-0.13,0.11,-0.20,0.26
22.226,-0.04,0.22,-0.23,0.32
22.236,0.11,0.25,-0.17,0.33
22.246,0.19,0.31,-0.01,0.36
22.255,0.15,0.49,0.49,0.71
22.266,0.38,0.14,0.55,0.68
22.275,0.39,0.07,0.58,0.70
22.286,0.39,-0.22,0.47,0.65
22.296,0.27,-0.68,0.27,0.78
22.306,0.25,-1.11,-0.24,1.16
22.316,0.18,-1.15,-0.47,1.25
22.325,0.20,-1.04,-0.28,1.10
22.335,0.28,-0.90,-0.28,0.99
22.346,0.38,-0.71,-0.23,0.84
22.355,0.49,-0.46,-0.23,0.71
22.366,0.59,-0.32,-0.31,0.74
22.375,0.56,-0.52,-0.44,0.88
22.386,0.32,-0.01,-0.03,0.32
22.395,0.94,-0.06,0.54,1.08
22.405,1.38,0.31,0.36,1.46
22.415,1.35,0.31,0.05,1.39
22.425,1.33,0.15,-0.01,1.34
22.435,1.21,0.13,-0.00,1.22
22.445,1.03,0.18,0.08,1.04
22.455,0.84,0.18,0.09,0.86
22.465,0.65,0.15,0.10,0.67
22.475,0.49,0.08,0.08,0.51
22.485,0.53,-0.09,-0.00,0.54
22.495,0.32,0.12,0.15,0.37
22.505,0.54,-0.09,0.14,0.56
22.515,0.71,0.19,0.21,0.77
22.525,0.74,0.42,0.16,0.87
22.535,0.68,0.42,0.07,0.80
22.545,0.63,0.49,0.03,0.80
22.555,0.51,0.50,0.05,0.71
22.565,0.35,0.43,0.04,0.55
22.575,0.34,0.29,0.09,0.45
22.585,0.45,0.13,0.19,0.50
22.595,0.57,0.05,0.34,0.67
22.605,0.63,0.13,0.39,0.75
22.615,0.51,0.24,0.31,0.64
22.625,0.16,0.14,0.11,0.24
22.635,0.26,-0.04,0.21,0.34
22.645,0.25,-0.23,0.38,0.51
22.655,0.57,-0.23,0.74,0.96
22.665,0.60,-0.26,0.66,0.93
22.675,0.52,-0.29,0.50,0.78
22.685,0.40,-0.18,0.31,0.53
22.695,0.20,0.03,0.08,0.22
22.705,0.11,0.09,-0.06,0.15
22.715,0.16,-0.03,0.02,0.16
22.725,0.28,-0.17,0.12,0.35
22.735,0.38,0.06,0.18,0.43
22.745,0.39,0.04,0.33,0.51
22.755,0.37,0.19,0.42,0.59
22.765,0.31,0.27,0.32,0.52
22.775,0.11,-0.46,0.36,0.60
22.785,0.31,-1.13,0.25,1.20
22.795,0.58,-0.74,-0.02,0.94
22.805,0.58,-0.52,-0.24,0.82
22.815,0.57,-0.27,-0.40,0.75
22.825,0.57,-0.12,-0.42,0.72
22.835,0.68,0.18,-0.08,0.71
22.845,0.76,0.60,0.22,0.99
22.855,0.68,0.92,0.42,1.22
22.865,0.51,1.08,0.42,1.27
22.874,0.48,0.89,0.35,1.07
22.885,0.51,0.94,0.40,1.14
22.895,0.45,0.85,0.34,1.03
22.905,0.93,0.83,0.46,1.33
22.915,1.39,0.69,0.52,1.64
22.925,1.29,0.81,0.44,1.58
22.935,0.77,1.16,0.38,1.44
22.944,0.59,1.41,0.22,1.55
22.955,0.66,1.39,0.03,1.54
22.965,0.49,1.43,-0.07,1.51
22.975,0.28,1.46,-0.29,1.52
22.985,-0.01,0.90,-0.47,1.01
22.995,-0.32,1.63,-0.43,1.71
23.005,-0.26,1.61,-0.41,1.68
23.014,-0.21,1.82,-0.29,1.86
23.024,-0.29,2.11,-0.03,2.13
23.034,-0.29,2.68,0.01,2.69
23.044,-0.01,3.81,0.23,3.82
23.055,0.46,3.96,0.39,4.00
23.065,1.41,2.17,-0.59,2.65
23.074,1.01,1.95,-0.38,2.23
23.084,0.29,1.99,-1.33,2.42
23.094,0.04,1.83,-0.81,2.01
23.104,0.22,2.77,-1.60,3.20
23.114,0.53,2.76,-1.62,3.24
23.124,1.04,3.06,-1.26,3.47
23.134,2.30,3.83,0.52,4.50
23.144,3.85,4.31,1.15,5.89
23.154,4.27,3.43,0.89,5.54
23.164,3.23,1.94,-0.03,3.76
23.174,2.55,-0.21,0.26,2.57
23.184,2.48,-2.85,0.90,3.88
23.194,2.52,-5.42,-0.30,5.98
23.204,1.98,-6.19,0.22,6.51
23.214,1.68,-3.71,0.45,4.10
23.224,1.71,3.75,-0.31,4.13
23.234,3.16,8.97,-1.67,9.65
23.244,5.23,7.52,-1.85,9.34
23.254,6.58,4.49,-0.73,8.00
23.264,6.25,3.47,3.12,7.80
23.274,5.49,3.57,4.64,8.02
23.284,8.89,8.65,6.23,13.87
23.294,8.63,5.81,-10.50,14.78
23.304,4.42,4.66,-7.23,9.67
23.314,2.55,2.16,-8.11,8.77
23.324,1.70,2.40,-8.30,8.80
23.334,2.36,3.70,-6.62,7.94
23.344,3.35,4.16,-4.77,7.16
23.354,3.58,4.62,-5.30,7.90
23.364,3.19,3.50,-7.09,8.52
23.374,1.69,1.96,-7.68,8.10
23.384,0.09,-0.34,-7.47,7.48
23.394,-1.97,-1.82,-6.41,6.95
23.404,-3.66,-0.62,-7.31,8.20
23.414,-4.21,0.33,-7.33,8.46
23.424,-4.71,-0.01,-5.12,6.96
23.434,-5.85,-0.43,-4.66,7.49
23.444,-7.03,-1.61,-4.79,8.65
23.454,-7.70,-2.89,-3.93,9.11
23.464,-7.81,-3.40,-2.99,9.03
23.474,-7.52,-3.27,-2.52,8.58
23.484,-7.53,-2.69,-2.83,8.48
23.494,-7.97,-1.93,-3.50,8.92
23.504,-8.08,-1.88,-3.52,9.02
23.514,-7.96,-2.27,-2.60,8.67
23.524,-7.63,-2.76,-1.60,8.27
23.533,-7.21,-3.05,-1.80,8.03
23.544,-6.90,-3.72,-1.31,7.94
23.554,-6.46,-4.49,-0.08,7.86
23.564,-5.98,-4.60,0.23,7.54
23.573,-5.41,-4.04,-0.33,6.76
23.584,-5.06,-3.08,-0.97,6.00
23.593,-4.98,-2.23,-1.67,5.70
23.604,-4.78,-2.38,-1.62,5.58
23.614,-4.37,-3.25,-0.11,5.44
23.624,-3.24,-4.61,0.18,5.64
23.634,-2.50,-5.95,0.30,6.46
23.644,-2.30,-7.16,1.12,7.60
23.653,-2.51,-6.89,1.66,7.52
23.664,-2.96,-4.27,0.96,5.28
23.673,-3.07,-1.18,-0.63,3.35
23.684,-3.36,0.98,-1.10,3.66
23.693,-3.84,1.87,-0.86,4.36
23.703,-3.32,1.53,0.18,3.66
23.713,-1.61,0.15,0.86,1.83
23.723,-1.21,-0.24,2.16,2.49
23.733,-1.62,-0.32,4.29,4.59
23.743,-0.49,0.82,4.93,5.02
23.753,11.13,4.01,9.86,15.40
23.763,6.41,20.78,32.32,38.96
23.773,2.94,11.90,16.19,20.31
23.783,-3.31,4.91,9.63,11.31
23.793,-3.72,-0.38,0.59,3.78
23.803,-6.18,-0.73,-4.26,7.54
23.813,-5.57,-1.09,-2.62,6.25
23.823,-2.96,-3.88,-3.33,5.90
23.833,-1.75,-4.34,-1.20,4.83
23.843,0.39,-4.05,2.31,4.68
23.853,-0.33,-2.37,6.17,6.62
23.863,-1.54,0.02,4.80,5.04
23.873,-1.93,-0.43,2.39,3.10
23.883,-3.52,-0.34,3.96,5.31
23.893,-4.99,1.19,4.04,6.53
23.903,-5.07,2.27,2.79,6.21
23.913,-4.06,2.61,0.92,4.91
23.923,-2.57,2.68,1.99,4.22
23.933,-1.22,3.65,-0.09,3.85
23.943,-0.93,3.86,-2.14,4.51
23.953,-0.24,3.24,-2.42,4.05
23.963,-0.17,2.24,-3.62,4.27
23.973,0.34,1.51,-4.29,4.56
23.983,1.00,1.04,-4.48,4.71
23.993,1.69,0.21,-4.73,5.03
24.003,2.31,-0.85,-4.72,5.32
24.013,2.80,-1.70,-4.14,5.28
24.023,3.03,-2.42,-2.81,4.79
24.033,2.89,-2.92,-1.17,4.28
24.043,2.49,-3.28,-0.54,4.15
24.053,2.25,-3.53,-0.62,4.23
24.063,2.10,-3.23,-0.77,3.93
24.073,1.63,-2.31,-1.05,3.02
24.083,0.84,-1.49,-1.06,2.01
24.093,0.09,-0.96,-0.76,1.23
24.103,-0.38,-0.36,-0.53,0.75
24.113,-1.03,0.18,0.58,1.19
24.123,-1.38,0.12,0.87,1.64
24.133,-1.55,-0.04,1.75,2.34
24.143,-1.02,0.17,1.26,1.63
24.153,-0.95,0.36,1.02,1.44
24.163,-0.78,0.66,0.60,1.18
24.173,-0.50,0.97,-0.03,1.09
24.182,-0.50,0.95,-0.32,1.12
24.193,-0.58,0.81,-0.43,1.08
24.203,-0.55,0.71,-0.49,1.02
24.213,-0.48,0.53,-0.63,0.95
24.223,-0.44,0.20,-0.61,0.78
24.233,-0.57,-0.11,-0.33,0.67
24.243,-0.96,-0.22,-0.24,1.01
24.253,-2.16,1.87,-1.22,3.10
24.263,-2.03,2.37,-1.51,3.46
24.273,-1.81,1.43,-1.78,2.91
24.283,-1.08,0.99,-1.28,1.95
24.293,-0.56,0.38,-1.02,1.23
24.303,-0.37,0.48,-0.96,1.14
24.313,-0.37,0.65,-0.75,1.06
24.322,-0.56,0.62,-0.35,0.91
24.332,-0.60,0.56,-0.12,0.83
24.343,-0.48,0.78,-0.34,0.98
24.352,-0.36,1.09,-0.68,1.33
24.363,-0.36,1.21,-0.88,1.53
24.372,-0.28,1.14,-0.94,1.50
24.382,-0.10,0.93,-1.17,1.50
24.392,0.03,0.73,-1.26,1.46
24.402,-0.07,0.80,-1.17,1.42
24.412,-0.33,1.02,-0.97,1.45
24.422,-0.51,1.05,-0.63,1.33
24.432,-0.47,0.89,-0.41,1.08
24.442,-0.20,0.78,-0.45,0.93
24.452,0.02,0.92,-0.75,1.19
24.462,0.11,1.25,-0.94,1.57
24.472,0.14,1.41,-1.13,1.81
24.482,0.18,1.31,-1.13,1.74
24.492,0.31,1.08,-1.12,1.59
24.502,0.45,0.86,-1.39,1.69
24.512,0.42,0.83,-2.41,2.58
24.522,0.06,1.04,-2.68,2.88
24.532,-0.41,0.78,-0.63,1.08
24.542,-0.77,0.62,0.44,1.09
24.552,-0.81,0.59,0.64,1.19
24.562,-0.70,0.71,0.39,1.07
24.573,-0.74,1.26,0.26,1.48
