time,ax,ay,az,atotal
0.000,0.38,-0.45,0.72,0.93
0.010,0.11,-0.75,0.59,0.96
0.020,-0.06,-0.86,0.87,1.22
0.030,-0.11,-0.71,0.90,1.15
0.040,-0.02,-0.44,0.68,0.81
0.050,0.12,-0.18,0.39,0.45
0.060,0.23,-0.01,0.24,0.33
0.070,0.17,-0.33,0.06,0.38
0.080,0.22,-0.46,0.25,0.57
0.090,0.18,-0.79,0.12,0.82
0.100,0.10,-1.24,-0.04,1.24
0.110,0.04,-1.49,-0.18,1.50
0.120,-0.05,-1.68,-0.09,1.69
0.130,0.04,-1.85,-0.11,1.85
0.140,0.33,-1.82,-0.12,1.86
0.149,0.67,-1.56,-0.42,1.75
0.160,0.96,-1.12,-0.88,1.72
0.170,1.25,-0.66,-1.03,1.75
0.180,1.33,-0.45,-1.06,1.76
0.190,0.97,-0.25,-0.87,1.33
0.200,0.33,-0.09,-0.07,0.35
0.209,-0.29,-0.30,0.94,1.03
0.220,-0.78,-0.86,1.07,1.57
0.230,-0.99,-1.07,1.16,1.86
0.240,-0.86,-1.14,1.47,2.05
0.249,-0.67,-1.28,1.25,1.91
0.259,-0.42,-1.39,0.97,1.75
0.270,-0.29,-1.33,1.06,1.72
0.280,-0.17,-1.17,0.78,1.42
0.289,-0.23,-0.89,0.80,1.22
0.299,-0.54,-0.45,1.18,1.37
0.309,-0.69,-0.18,1.71,1.85
0.320,-0.79,-0.62,2.40,2.60
0.329,-0.80,-1.62,3.02,3.52
0.340,-0.48,-2.23,3.15,3.89
0.349,-0.09,-2.31,2.66,3.52
0.359,0.17,-2.27,2.10,3.10
0.369,0.29,-2.12,2.14,3.03
0.379,0.04,-1.73,2.06,2.69
0.389,-0.24,-1.22,1.72,2.13
0.399,-0.20,-0.59,1.40,1.53
0.409,0.21,0.00,0.71,0.75
0.419,0.70,0.24,0.30,0.80
0.429,0.99,0.06,0.21,1.01
0.439,0.77,-0.34,0.25,0.88
0.449,0.48,-0.99,0.21,1.12
0.459,0.65,-1.00,0.31,1.23
0.469,1.11,-0.76,-0.78,1.56
0.479,-0.29,-0.06,-2.14,2.16
0.489,-1.11,1.19,-1.31,2.09
0.499,-0.46,1.14,-0.63,1.39
0.509,0.01,1.65,-0.25,1.67
0.519,0.82,0.45,-1.05,1.41
0.529,0.77,0.14,-0.76,1.09
0.539,0.25,-0.73,0.71,1.05
0.549,0.21,-0.98,1.16,1.54
0.559,0.25,-1.03,1.09,1.52
0.569,0.35,-1.19,0.93,1.55
0.579,0.74,-1.53,0.76,1.87
0.589,1.17,-1.49,1.18,2.23
0.599,1.02,-1.57,1.35,2.31
0.609,0.16,-1.57,1.71,2.33
0.619,-0.84,-1.28,2.14,2.63
0.629,-1.44,-0.48,1.29,1.99
0.639,-1.07,-0.14,1.03,1.49
0.649,-0.11,-0.02,1.19,1.20
0.659,0.73,-0.55,1.26,1.55
0.669,1.03,-1.29,0.27,1.67
0.679,1.14,-1.46,0.45,1.91
0.689,1.06,-1.78,0.15,2.07
0.699,0.92,-1.75,-0.11,1.98
0.709,1.07,-1.46,-0.12,1.82
0.719,1.27,-1.07,0.14,1.66
0.729,0.75,-0.48,0.51,1.02
0.739,-0.02,-0.11,1.42,1.43
0.749,-0.02,-0.76,1.63,1.80
0.759,0.03,-0.91,1.31,1.60
0.769,0.05,-1.19,0.01,1.19
0.779,0.19,-1.80,-0.37,1.85
0.789,0.43,-1.83,-0.03,1.88
0.798,0.44,-0.98,0.15,1.08
0.809,-0.31,0.30,0.07,0.44
0.819,-0.25,0.56,1.92,2.01
0.829,0.67,0.37,1.84,2.00
0.839,0.57,-0.67,3.52,3.62
0.848,0.00,-1.29,6.96,7.08
0.859,-0.24,-0.45,9.08,9.09
0.869,0.10,0.74,8.78,8.81
0.879,-0.30,1.60,8.07,8.24
0.889,-1.32,2.30,7.54,7.99
0.898,-2.51,2.97,6.86,7.89
0.909,-3.81,3.60,6.41,8.29
0.919,-4.93,3.73,6.20,8.75
0.929,-5.46,3.26,5.16,8.20
0.939,-5.69,3.07,4.67,7.97
0.948,-5.58,3.40,4.43,7.89
0.959,-5.74,3.60,3.80,7.77
0.968,-6.39,4.31,2.69,8.16
0.978,-6.90,5.33,1.04,8.78
0.988,-7.16,5.81,0.52,9.24
0.998,-6.97,5.59,0.73,8.97
1.008,-6.42,5.50,1.37,8.56
1.018,-5.38,5.86,2.23,8.26
1.028,-3.58,6.11,1.29,7.20
1.039,-2.35,5.99,-0.57,6.46
1.048,-1.85,6.42,-2.13,7.01
1.058,-1.60,7.88,-3.58,8.80
1.068,-1.28,9.51,-4.48,10.59
1.078,-0.95,9.94,-5.52,11.41
1.088,-0.25,9.12,-5.81,10.82
1.098,0.58,7.51,-6.16,9.73
1.108,1.76,6.21,-6.53,9.18
1.118,3.03,5.55,-7.25,9.62
1.128,4.05,5.30,-7.87,10.31
1.138,5.12,5.36,-8.33,11.15
1.148,5.73,5.26,-8.30,11.37
1.158,6.21,4.93,-7.74,11.08
1.168,6.66,4.18,-7.01,10.53
1.178,7.00,3.04,-5.57,9.45
1.188,7.49,2.24,-4.66,9.10
1.198,7.90,2.23,-4.95,9.59
1.208,8.21,2.73,-5.54,10.28
1.218,8.56,3.38,-5.44,10.69
1.228,8.76,3.69,-5.22,10.84
1.238,8.65,3.31,-4.98,10.52
1.248,8.20,2.55,-4.16,9.54
1.258,7.32,1.27,-2.90,7.98
1.268,6.13,-0.83,-1.55,6.38
1.278,5.45,-2.91,-0.61,6.21
1.288,6.60,-3.47,-2.17,7.77
1.303,5.68,-1.83,-3.27,6.80
1.308,5.73,-0.47,-3.63,6.80
1.318,5.61,0.64,-3.64,6.72
1.328,4.48,-0.06,-2.31,5.04
1.338,2.26,-4.69,0.79,5.27
1.348,1.74,-8.06,-0.51,8.26
1.358,2.25,-6.10,0.55,6.53
1.368,1.43,-4.57,3.17,5.74
1.378,0.59,-3.41,3.93,5.24
1.388,0.29,-1.44,4.19,4.44
1.398,-0.37,0.61,3.68,3.75
1.408,-1.41,0.80,2.56,3.03
1.418,-2.34,0.15,2.04,3.11
1.428,-2.80,0.13,1.30,3.09
1.438,-3.14,0.42,0.08,3.17
1.448,-2.79,0.59,-1.17,3.08
1.458,-2.06,1.06,-2.31,3.27
1.468,-0.82,2.54,-3.78,4.62
1.478,0.23,3.32,-3.99,5.19
1.488,0.91,2.65,-2.94,4.07
1.498,1.60,1.64,-3.17,3.91
1.508,0.25,-1.70,-2.23,2.81
1.517,2.00,0.74,-0.17,2.14
1.528,0.08,-1.96,-0.93,2.17
1.538,-0.57,-3.89,0.12,3.93
1.548,-0.76,-3.90,1.73,4.33
1.558,-1.73,-4.66,1.28,5.13
1.567,-2.38,-3.66,3.43,5.55
1.577,-1.26,0.24,3.29,3.53
1.588,-1.30,2.05,3.20,4.02
1.597,-0.94,2.52,2.91,3.96
1.608,-1.07,1.94,2.42,3.28
1.617,-0.98,0.53,2.25,2.51
1.627,-0.94,-1.33,1.79,2.42
1.638,-0.48,-2.56,1.70,3.11
1.647,0.25,-3.25,0.94,3.39
1.658,0.72,-3.24,0.10,3.32
1.667,0.84,-2.66,-1.12,3.00
1.677,0.87,-2.02,-2.45,3.29
1.687,0.95,-0.75,-3.28,3.49
1.697,1.22,0.53,-4.03,4.24
1.707,1.26,1.50,-3.89,4.36
1.717,0.90,1.10,-3.19,3.50
1.727,0.77,-0.09,-2.02,2.16
1.737,0.92,-0.98,-0.51,1.44
1.747,1.30,-1.12,0.80,1.89
1.757,1.82,-0.46,1.45,2.37
1.767,2.04,0.42,1.13,2.37
1.777,1.75,0.86,1.11,2.24
1.787,1.58,1.29,1.19,2.36
1.797,1.39,2.18,1.28,2.88
1.807,1.32,3.06,0.51,3.37
1.817,0.08,2.02,-0.02,2.02
1.827,-1.51,-0.71,0.06,1.67
1.837,-0.70,-2.33,-0.05,2.44
1.847,0.91,-2.62,0.93,2.92
1.857,0.21,-5.25,0.17,5.26
1.867,0.26,-4.83,0.54,4.87
1.877,0.02,-3.82,-1.01,3.96
1.887,-0.87,-2.41,-1.62,3.03
1.897,-0.63,-0.17,-1.76,1.87
1.907,0.33,1.57,-1.57,2.24
1.917,1.15,1.69,-2.21,3.01
1.927,1.70,1.16,-1.61,2.61
1.937,1.85,0.20,-1.24,2.23
1.947,1.51,-0.36,-0.61,1.67
1.957,1.43,-0.16,-0.06,1.44
1.967,1.71,0.88,0.75,2.06
1.977,2.34,2.68,1.13,3.73
1.987,2.33,2.79,1.91,4.11
1.997,1.47,1.29,2.32,3.03
2.007,-0.14,-0.52,1.67,1.76
2.017,-1.33,-0.92,0.94,1.87
2.027,-1.59,-0.43,0.38,1.69
2.037,-1.20,-0.53,-0.02,1.31
2.047,-0.82,-1.11,-0.47,1.46
2.057,-0.87,-1.99,-0.80,2.31
2.067,-1.34,-3.27,-1.09,3.70
2.077,-1.34,-3.86,-1.42,4.32
2.087,-1.11,-3.29,-1.01,3.62
2.096,-0.72,-1.25,-0.23,1.46
2.107,-0.23,1.05,0.16,1.09
2.117,-0.09,2.22,0.09,2.22
2.127,-0.10,1.50,-0.34,1.54
2.137,0.34,0.34,-0.53,0.71
2.147,0.87,-0.76,0.27,1.19
2.157,0.72,-1.91,1.40,2.48
2.166,0.14,-2.29,1.98,3.03
2.177,-0.61,-1.79,1.86,2.65
2.187,-1.07,-1.15,0.88,1.80
2.197,-0.61,-0.44,-0.02,0.75
2.207,0.51,-0.09,-0.37,0.64
2.216,2.07,-0.06,-0.79,2.21
2.226,3.00,-0.08,-0.85,3.12
2.236,2.45,-0.81,-0.38,2.61
2.246,1.39,-1.45,-0.56,2.08
2.257,0.75,-1.08,-1.11,1.72
2.266,0.53,-0.59,-0.36,0.87
2.276,0.63,0.30,1.24,1.42
2.287,1.31,0.74,0.33,1.54
2.296,0.94,1.22,0.05,1.54
2.307,-0.03,1.55,0.04,1.55
2.317,-0.96,0.95,-0.68,1.52
2.326,-1.42,0.02,-1.00,1.74
2.337,-1.52,-0.67,-0.99,1.93
2.346,-1.21,-0.27,-1.26,1.77
2.357,-0.50,0.79,-0.26,0.98
2.366,-0.02,1.12,0.63,1.28
2.376,0.47,0.67,0.24,0.85
2.387,0.40,-0.06,0.22,0.47
2.396,0.77,-0.53,0.45,1.03
2.406,1.10,-0.41,0.98,1.52
2.416,1.02,-0.32,1.65,1.97
2.426,0.42,-0.39,1.53,1.64
2.436,-0.35,-0.42,1.58,1.67
2.446,-0.63,0.12,1.71,1.83
2.457,-0.54,-0.19,0.46,0.73
2.466,-0.13,-0.25,-0.26,0.38
2.476,0.23,-0.24,-0.22,0.39
2.486,0.16,-0.31,-0.07,0.35
2.496,-0.13,-0.57,-0.05,0.59
2.506,-0.07,-0.44,-0.63,0.77
2.516,0.29,0.05,-1.13,1.17
2.526,0.40,0.31,-0.74,0.90
2.536,0.78,0.77,-0.40,1.17
2.546,0.70,-0.26,0.32,0.81
2.556,0.62,-0.53,0.81,1.14
2.566,-0.08,-0.74,0.66,1.00
2.576,-0.19,-0.64,0.35,0.75
2.586,-0.03,-0.07,0.39,0.40
2.596,0.24,0.73,-0.01,0.77
2.606,0.86,0.74,-0.04,1.13
2.616,0.64,-0.09,0.17,0.67
2.626,0.15,-0.82,0.16,0.85
2.636,0.44,-0.88,0.18,1.00
2.646,1.03,0.04,0.31,1.08
2.656,1.14,-0.05,-0.33,1.18
2.666,1.00,-0.72,-0.29,1.26
2.676,4.59,-4.07,1.56,6.33
2.686,-1.65,0.21,2.78,3.24
2.696,-4.36,3.12,-2.46,5.90
2.706,-2.43,3.69,-3.80,5.83
2.716,0.23,1.80,-2.65,3.22
2.726,1.87,0.19,0.13,1.89
2.736,1.89,-0.08,1.21,2.24
2.746,1.10,-0.28,0.97,1.49
2.756,0.37,-0.18,0.99,1.08
2.766,-0.47,-0.06,1.02,1.12
2.776,-1.16,0.61,0.85,1.57
2.786,-0.47,0.96,0.68,1.26
2.796,-0.19,1.01,-0.06,1.03
2.806,-0.12,0.86,0.35,0.94
2.816,-0.85,0.39,0.19,0.95
2.826,-0.82,-0.02,0.29,0.87
2.836,-0.69,-0.00,0.53,0.87
2.846,-1.66,0.70,0.83,1.98
2.856,-1.51,1.16,-0.40,1.94
2.865,1.18,-0.03,-0.84,1.45
2.876,1.31,-0.51,-0.50,1.49
2.886,0.54,-0.38,-1.40,1.55
2.896,0.53,-0.10,-0.68,0.87
2.906,0.83,-0.94,0.86,1.52
2.915,-0.55,-0.77,0.82,1.25
2.926,-0.90,-0.73,0.20,1.17
2.935,-0.40,-0.51,0.40,0.76
2.945,-0.24,0.08,0.29,0.39
2.956,0.12,0.56,-0.74,0.93
2.965,1.18,0.16,-1.16,1.66
2.976,2.01,-0.82,-0.61,2.25
2.986,0.82,-1.33,-0.46,1.63
2.995,0.04,-0.99,0.09,0.99
3.006,0.51,-0.98,1.23,1.65
3.015,0.19,-0.46,0.62,0.80
3.025,-0.27,0.19,-0.23,0.40
3.035,-0.31,0.42,-0.38,0.65
3.045,-0.03,0.28,-0.30,0.41
3.055,0.34,0.05,-0.32,0.47
3.065,-0.12,0.07,-0.46,0.48
3.075,0.11,0.68,-0.19,0.72
3.085,0.12,0.83,0.26,0.87
3.095,-0.55,0.75,0.16,0.94
3.106,-0.57,0.94,0.05,1.10
3.115,-0.20,0.42,0.63,0.78
3.125,-0.01,0.32,0.94,0.99
3.135,-0.36,-0.39,0.94,1.08
3.145,-0.41,-0.79,0.95,1.30
3.155,0.21,-0.61,0.64,0.91
3.165,0.02,-0.44,-0.04,0.44
3.175,-0.28,0.07,-0.29,0.41
3.185,0.20,0.90,-0.08,0.92
3.195,-0.50,0.39,-0.12,0.65
3.205,-2.43,-0.48,0.67,2.57
3.215,-0.56,-1.12,0.47,1.34
3.225,1.97,-0.58,0.07,2.05
3.235,1.23,-0.37,-0.46,1.36
3.245,1.12,-0.18,-0.40,1.21
3.255,0.97,-0.05,-0.25,1.00
3.265,0.71,0.40,-0.56,0.99
3.275,1.05,0.97,-0.54,1.52
3.285,1.00,1.71,0.15,1.98
3.295,-0.14,1.12,0.41,1.20
3.305,-0.55,1.00,0.58,1.28
3.315,-0.34,1.05,0.45,1.19
3.325,-0.18,0.49,0.15,0.54
3.335,0.20,0.10,-0.68,0.72
3.345,0.54,-0.42,-0.42,0.80
3.355,0.23,-0.29,0.65,0.75
3.365,0.19,-0.03,1.29,1.30
3.375,-0.79,-0.88,1.46,1.88
3.385,-4.12,-5.07,3.74,7.53
3.395,-0.97,-2.32,5.27,5.84
3.405,3.79,2.55,-1.20,4.72
3.415,-0.47,1.88,-0.94,2.15
3.425,1.51,1.11,-0.48,1.93
3.435,-1.19,0.79,-0.99,1.74
3.445,-0.84,-3.09,1.00,3.36
3.455,-4.12,-11.40,6.15,13.59
3.464,1.85,3.34,-4.62,5.99
3.475,2.05,4.55,-9.09,10.37
3.484,-1.31,2.62,-3.49,4.56
3.495,0.13,1.16,-0.90,1.47
3.505,-0.18,1.14,-0.44,1.23
3.515,-0.34,1.41,-0.25,1.47
3.525,-0.44,1.39,-0.21,1.47
3.535,-0.58,0.74,-0.09,0.95
3.545,-0.71,0.13,0.08,0.73
3.555,-0.49,-0.56,0.44,0.87
3.564,-0.06,-1.22,1.05,1.61
3.575,0.52,-1.21,1.10,1.72
3.584,0.78,-1.28,0.85,1.72
3.595,0.79,-1.15,0.39,1.45
3.605,0.81,-0.70,0.16,1.08
3.615,0.67,-0.36,0.20,0.78
3.625,0.52,0.12,-0.19,0.57
3.634,0.35,0.33,-1.35,1.43
3.644,0.24,0.05,-1.76,1.78
3.655,0.29,-0.45,-1.24,1.35
3.664,0.47,-0.51,-0.78,1.05
3.674,0.82,-0.36,-0.96,1.31
3.684,0.75,-0.21,-0.58,0.97
3.695,0.81,-0.06,-0.16,0.83
3.704,0.76,-0.27,0.12,0.81
3.714,0.63,-0.68,0.32,0.98
3.724,0.35,-0.91,0.31,1.02
3.734,0.10,-0.90,0.02,0.91
3.744,-0.28,-0.06,-3.49,3.50
3.754,-2.06,1.43,-10.83,11.12
3.764,-1.12,-0.91,-11.23,11.32
3.775,1.72,0.19,-1.11,2.06
3.784,1.44,0.67,6.90,7.08
3.794,-0.90,-1.12,5.40,5.59
3.804,-1.15,-0.55,4.47,4.64
3.814,0.08,2.01,5.24,5.62
3.824,0.62,1.10,4.88,5.05
3.834,0.35,-0.92,-1.58,1.86
3.844,0.28,0.86,-0.38,0.98
3.854,1.01,0.69,-1.83,2.20
3.864,0.61,1.05,-4.88,5.03
3.874,0.75,0.46,-3.35,3.46
3.884,0.44,0.27,-0.15,0.54
3.894,0.16,-0.07,1.33,1.34
3.904,-0.24,-0.23,1.00,1.05
3.914,-0.71,-2.02,1.54,2.64
3.924,0.44,-0.47,1.69,1.81
3.934,-0.07,0.13,-0.01,0.14
3.944,0.03,-0.33,0.04,0.34
3.954,0.34,-0.54,3.44,3.50
3.964,0.52,-0.30,1.94,2.03
3.974,0.28,-0.16,-3.09,3.11
3.984,0.91,0.25,-2.55,2.72
3.994,0.72,0.46,-1.53,1.75
4.004,0.98,0.62,-1.83,2.17
4.014,0.86,0.38,-0.55,1.09
4.024,0.91,0.75,0.48,1.27
4.034,0.64,1.08,0.32,1.30
4.044,0.51,0.68,0.18,0.87
4.054,0.02,0.22,-0.07,0.23
4.064,0.04,-0.49,-2.11,2.17
4.074,1.69,0.11,-4.84,5.13
4.084,1.49,0.34,-3.63,3.94
4.094,1.00,0.36,-1.12,1.54
4.104,0.43,0.79,1.54,1.79
4.114,-0.21,0.50,2.38,2.44
4.124,-0.73,-0.47,2.65,2.79
4.134,-0.73,-1.16,2.40,2.77
4.144,-0.17,-0.96,0.72,1.22
4.154,0.45,-1.00,-0.41,1.17
4.164,1.01,-0.88,-0.60,1.47
4.174,0.93,-0.60,-0.33,1.15
4.183,0.88,-0.42,-0.09,0.98
4.194,1.02,0.43,1.24,1.66
4.204,1.03,0.63,0.60,1.35
4.214,0.74,-0.44,-1.94,2.12
4.224,0.74,-0.84,-3.15,3.34
4.233,1.49,-0.82,-2.16,2.75
4.244,0.50,-0.21,0.24,0.60
4.254,1.46,-0.66,0.21,1.61
4.264,1.51,-1.68,-0.38,2.29
4.274,1.13,-2.21,0.31,2.50
4.283,1.82,-1.50,-1.76,2.94
4.294,1.63,-1.36,-2.50,3.28
4.303,1.53,-1.05,-3.04,3.56
4.314,1.39,-0.28,-3.01,3.33
4.323,0.30,-0.89,-2.09,2.29
4.333,0.56,-0.84,-0.70,1.23
4.343,0.97,-0.31,0.42,1.10
4.353,0.62,0.07,1.76,1.86
4.363,0.27,0.68,1.44,1.61
4.374,-0.10,0.70,1.32,1.50
4.383,-0.30,1.06,1.68,2.01
4.393,-0.59,1.47,1.74,2.35
4.404,-0.53,1.30,1.14,1.81
4.413,-0.26,1.37,1.01,1.73
4.423,0.00,1.72,0.55,1.80
4.433,-0.26,2.44,0.41,2.49
4.443,-1.10,2.85,2.09,3.70
4.454,-0.41,1.71,2.21,2.82
4.463,-0.29,0.82,1.12,1.42
4.473,0.29,1.66,-1.55,2.29
4.483,0.16,0.90,-3.50,3.61
4.493,1.54,-1.85,0.48,2.46
4.503,1.22,-2.48,1.21,3.02
4.513,-0.20,-0.82,0.31,0.90
4.523,1.16,-1.92,0.94,2.43
4.533,0.54,-0.88,0.71,1.26
4.543,-0.83,-0.47,1.21,1.54
4.553,-2.34,-0.86,1.81,3.08
4.563,-2.03,-2.03,0.97,3.03
4.573,-1.06,-2.33,0.28,2.58
4.583,-0.75,-1.82,-0.17,1.98
4.593,-1.35,-1.68,-0.25,2.17
4.603,-0.29,-1.86,-0.41,1.93
4.613,0.06,-0.29,0.38,0.49
4.623,-1.23,1.65,0.53,2.12
4.633,-2.55,2.14,0.91,3.46
4.643,-2.73,1.27,1.69,3.45
4.653,-3.02,0.46,1.89,3.59
4.663,-2.95,0.22,1.57,3.35
4.673,-2.85,0.34,1.08,3.07
4.683,-2.31,0.33,0.81,2.47
4.693,-1.47,-0.47,1.01,1.84
4.703,-0.18,-0.69,1.59,1.74
4.713,-0.20,0.36,-0.23,0.47
4.723,-0.63,0.39,-0.76,1.07
4.733,-0.78,0.80,-0.99,1.49
4.743,-0.48,1.13,-1.23,1.74
4.753,-1.19,0.82,-1.36,1.98
4.763,-1.67,0.16,-1.52,2.26
4.773,-1.65,-0.59,-1.58,2.36
4.783,-0.70,-0.37,-1.38,1.59
4.793,0.46,0.15,-0.84,0.97
4.803,0.77,-0.38,-0.56,1.03
4.813,0.09,-0.69,-0.62,0.93
4.823,-0.24,-0.31,-0.99,1.07
4.833,-0.60,0.31,-0.94,1.16
4.843,-0.43,0.68,-0.58,0.99
4.853,0.16,1.92,-1.20,2.27
4.863,0.75,2.95,-0.68,3.12
4.873,0.68,2.41,-0.61,2.57
4.883,0.60,1.42,0.05,1.55
4.893,0.30,0.88,0.95,1.33
4.902,-1.30,1.07,0.79,1.86
4.913,-1.60,0.40,0.62,1.76
4.923,-1.16,0.01,1.26,1.71
4.933,-0.19,-0.16,1.83,1.84
4.942,0.58,-0.29,2.25,2.34
4.953,1.39,-0.30,2.39,2.78
4.962,1.77,-0.22,2.51,3.08
4.973,1.71,-0.02,1.94,2.59
4.982,2.12,0.51,0.51,2.24
4.992,2.47,-0.47,-1.16,2.76
5.002,2.29,-1.22,-1.65,3.08
5.012,0.59,0.19,-1.49,1.61
5.022,-0.44,0.53,-1.65,1.79
5.032,-1.36,0.35,-1.46,2.03
5.042,-1.81,0.66,-1.89,2.70
5.052,-0.80,1.03,-1.46,1.96
5.062,-0.34,-0.65,-1.81,1.95
5.073,0.09,-0.90,-1.33,1.61
5.082,0.03,-0.52,-0.65,0.83
5.092,-0.53,-0.21,0.07,0.58
5.102,-1.09,-0.05,0.74,1.32
5.112,-0.93,0.00,1.34,1.63
5.122,-0.23,0.02,2.28,2.29
5.132,0.46,0.13,2.78,2.82
5.142,1.07,0.01,2.84,3.03
5.152,0.46,-0.79,0.40,1.00
5.162,-0.70,-1.12,-2.10,2.48
5.172,-0.99,-0.45,-2.48,2.71
5.182,-1.05,-0.14,-0.80,1.32
5.192,-0.81,-0.47,0.90,1.30
5.202,-0.51,-0.45,1.50,1.65
5.212,0.32,-0.14,0.69,0.77
5.222,0.55,0.56,0.25,0.83
5.232,0.16,0.38,0.23,0.47
5.242,-0.41,0.12,0.05,0.43
5.252,-0.86,-0.18,-0.97,1.31
5.262,-1.32,0.09,-2.14,2.51
5.272,-1.00,0.40,-2.61,2.83
5.282,-0.75,0.05,-1.95,2.09
5.292,-0.47,-0.56,-0.91,1.17
5.302,-0.27,-0.90,0.30,0.99
5.312,-0.38,-1.05,0.92,1.45
5.322,-0.60,-1.43,1.01,1.85
5.332,-0.45,-1.39,1.22,1.90
5.342,-0.08,-1.02,1.53,1.84
5.352,0.38,-0.58,1.60,1.74
5.362,0.96,0.43,1.32,1.69
5.372,0.95,1.36,0.34,1.69
5.382,0.35,0.83,-0.11,0.91
5.392,0.38,0.22,-0.79,0.90
5.402,0.76,0.16,-1.53,1.72
5.412,1.01,0.35,-1.02,1.48
5.422,0.86,0.37,-0.18,0.95
5.432,0.33,0.66,0.33,0.81
5.442,-0.89,1.40,0.16,1.67
5.452,-1.20,1.74,-0.77,2.25
5.462,0.04,1.41,-1.09,1.78
5.472,0.81,0.62,-1.08,1.48
5.482,0.56,0.23,-0.91,1.09
5.492,0.07,-0.27,-1.05,1.08
5.502,-0.34,-0.25,-0.75,0.86
5.512,-0.22,-0.19,-1.08,1.12
5.522,0.35,0.50,-0.35,0.71
5.532,0.82,1.38,0.97,1.87
5.542,0.51,1.27,1.26,1.86
5.551,0.40,0.04,-0.25,0.48
5.562,-0.37,-0.51,0.21,0.67
5.572,-0.78,-0.70,1.52,1.85
5.582,-0.76,-1.12,2.46,2.81
5.592,-0.90,-1.06,2.85,3.17
5.601,-0.15,-1.40,2.27,2.67
5.611,1.52,-1.26,1.70,2.60
5.622,1.96,-0.88,0.45,2.20
5.632,0.25,-1.38,-0.48,1.48
5.642,-0.88,-1.50,-0.51,1.81
5.651,-1.17,-0.85,-0.48,1.53
5.661,-1.01,-0.32,-0.86,1.36
5.672,-0.13,0.01,-1.07,1.08
5.682,0.60,0.01,-0.68,0.91
5.692,0.60,-0.15,0.02,0.62
5.701,0.00,-0.32,0.54,0.62
5.711,0.05,0.41,0.03,0.42
5.722,-0.61,0.83,-0.19,1.05
5.731,-1.15,0.91,-0.36,1.51
5.741,-1.20,1.51,-1.08,2.21
5.751,1.03,1.33,-1.65,2.36
5.761,2.28,0.31,-1.55,2.78
5.772,0.87,-0.11,-1.04,1.36
5.781,0.83,-0.62,-0.92,1.38
5.791,0.24,-0.85,-1.26,1.54
5.801,0.05,-0.57,-1.65,1.75
5.811,-1.14,-0.49,-1.59,2.01
5.821,-1.37,-1.16,-0.32,1.82
5.831,-0.39,-1.66,1.02,1.99
5.841,0.17,-1.76,1.64,2.41
5.851,0.66,-1.81,1.88,2.69
5.861,1.27,-1.55,1.55,2.53
5.871,1.45,-1.97,-0.08,2.45
5.881,0.35,-2.07,-1.10,2.37
5.891,-0.49,-0.48,-1.69,1.83
5.901,-1.76,1.18,-2.75,3.47
5.911,-1.02,1.54,-3.89,4.31
5.921,0.12,1.87,-3.57,4.04
5.931,1.05,1.23,-1.53,2.23
5.941,1.92,0.81,0.43,2.12
5.951,2.89,-0.43,1.88,3.47
5.961,3.29,-2.83,2.84,5.18
5.971,4.92,-8.48,4.30,10.71
5.981,0.98,-8.38,5.67,10.16
5.991,-0.44,-3.58,2.36,4.31
6.001,-0.65,2.98,0.60,3.11
6.011,-1.68,3.25,-0.51,3.69
6.021,-1.50,0.27,0.20,1.54
6.031,-0.52,-0.01,2.60,2.65
6.041,-0.06,-3.50,1.33,3.75
6.051,0.94,-4.57,0.94,4.76
6.061,0.25,1.51,-0.14,1.53
6.071,-1.28,4.28,-2.98,5.37
6.081,-0.45,4.39,-3.54,5.66
6.091,0.38,3.49,-3.44,4.91
6.101,0.29,2.38,-2.29,3.31
6.111,-0.32,1.39,-2.03,2.48
6.121,-1.00,1.40,-1.58,2.34
6.131,-1.05,1.55,-0.90,2.08
6.141,-0.16,0.60,0.29,0.69
6.151,0.09,0.25,0.80,0.84
6.161,0.03,0.37,1.34,1.39
6.171,-0.21,0.03,0.88,0.91
6.181,0.56,-0.39,1.00,1.22
6.191,1.28,-0.45,0.94,1.65
6.201,1.31,-0.11,0.24,1.34
6.211,1.43,-0.04,-0.04,1.43
6.220,0.93,-0.20,-0.21,0.98
6.231,0.55,0.05,-0.46,0.72
6.241,0.24,0.63,-0.51,0.85
6.251,0.37,-0.68,-1.03,1.28
6.261,1.11,-2.26,-1.08,2.74
6.270,1.85,-3.80,-0.84,4.31
6.281,1.84,-3.60,-1.32,4.25
6.291,1.60,-2.47,-1.56,3.33
6.301,1.14,-1.05,-1.44,2.11
6.311,0.53,-0.58,-1.74,1.91
6.320,1.07,-1.30,-1.39,2.19
6.331,1.45,-0.63,-1.28,2.03
6.340,1.49,-0.51,-0.38,1.62
6.350,2.08,-1.15,-0.31,2.39
6.360,3.30,-2.40,0.33,4.09
6.370,4.74,-2.89,-0.10,5.56
6.380,4.52,-0.39,-0.29,4.55
6.390,-0.33,1.89,-1.87,2.68
6.400,-0.35,1.25,-2.03,2.41
6.410,0.33,2.40,-1.23,2.72
6.420,1.70,1.72,-1.11,2.66
6.430,2.43,1.21,-0.97,2.88
6.440,2.52,1.20,-0.85,2.92
6.450,2.25,1.75,-1.08,3.05
6.460,1.98,1.80,-1.20,2.93
6.470,1.67,1.35,-1.41,2.57
6.480,1.92,0.86,-1.58,2.63
6.490,2.20,1.16,-1.72,3.02
6.500,1.92,1.48,-1.89,3.08
6.510,1.75,1.36,-1.87,2.90
6.520,1.55,1.11,-1.88,2.67
6.530,1.35,0.49,-1.57,2.13
6.540,0.99,0.10,-1.42,1.73
6.550,0.72,0.14,-1.33,1.52
6.560,0.82,0.23,-0.97,1.29
6.570,0.68,0.35,-1.05,1.30
6.580,0.51,0.17,-0.79,0.95
6.590,0.40,-0.32,-0.82,0.97
6.600,0.33,-0.44,-0.34,0.65
6.610,0.52,-1.05,0.63,1.33
6.620,0.20,-1.34,0.82,1.58
6.630,-0.18,0.43,-0.07,0.47
6.640,-0.96,1.54,0.02,1.81
6.650,-1.64,1.71,1.68,2.90
6.660,-1.81,2.52,1.93,3.66
6.670,-2.11,2.69,0.85,3.52
6.680,-2.60,2.04,-0.06,3.31
6.690,-3.22,1.07,-0.07,3.39
6.700,-3.72,0.70,0.14,3.78
6.710,-3.72,0.63,0.47,3.80
6.720,-3.18,0.38,0.64,3.26
6.730,-2.48,0.13,0.76,2.59
6.740,-1.99,0.12,0.34,2.03
6.750,-1.47,0.19,-0.23,1.50
6.760,-0.84,0.39,-0.67,1.14
6.770,-0.39,0.52,-0.86,1.07
6.780,-0.27,0.61,-1.11,1.30
6.790,-0.23,0.72,-1.35,1.55
6.800,-0.21,0.66,-1.50,1.65
6.810,-0.30,0.59,-1.42,1.56
6.820,-0.34,0.43,-1.24,1.35
6.830,-0.31,0.27,-1.21,1.27
6.840,-0.24,-0.15,-1.23,1.26
6.850,-0.20,-0.39,-1.14,1.22
6.860,-0.20,-0.19,-1.12,1.15
6.869,0.05,0.27,-1.29,1.32
6.880,0.30,0.77,-1.31,1.55
6.890,0.30,0.75,-1.42,1.64
6.900,-0.93,-0.17,-1.28,1.59
6.910,1.62,-3.12,-2.02,4.05
6.919,1.63,-3.49,-2.73,4.72
6.929,0.87,-2.41,-2.53,3.61
6.940,0.94,-2.27,-2.37,3.42
6.950,0.92,-2.27,-2.61,3.58
6.959,0.96,-2.00,-2.37,3.25
6.969,1.28,-1.44,-2.43,3.10
6.979,1.78,-1.17,-2.61,3.37
6.990,1.63,-0.74,-2.87,3.38
6.999,1.04,-0.18,-2.70,2.90
7.009,0.71,0.58,-2.93,3.07
7.019,-0.03,0.12,-4.74,4.74
7.029,0.36,-0.36,-4.84,4.86
7.039,4.15,0.52,1.12,4.33
7.050,4.93,2.62,-3.55,6.61
7.059,4.89,1.88,-3.63,6.38
7.069,5.23,1.59,-3.78,6.65
7.079,5.23,1.99,-3.98,6.87
7.090,4.72,2.58,-3.70,6.52
7.099,4.44,3.07,-3.27,6.31
7.109,4.76,2.88,-3.20,6.41
7.119,4.54,2.84,-2.69,6.00
7.129,3.83,3.54,-1.89,5.55
7.139,3.59,4.35,-0.95,5.72
7.149,3.77,4.31,-0.64,5.76
7.159,3.28,3.75,-1.22,5.13
7.169,2.18,2.76,-1.79,3.95
7.179,0.63,1.74,-1.82,2.59
7.189,-0.85,0.73,-1.39,1.79
7.199,-1.96,-0.59,-0.84,2.21
7.209,-2.59,-1.96,-0.32,3.27
7.219,-3.15,-3.24,0.30,4.53
7.229,-3.85,-4.22,1.22,5.85
7.239,-4.30,-4.02,1.96,6.20
7.249,-4.44,-2.77,2.16,5.66
7.259,-4.21,-1.31,1.92,4.81
7.269,-3.15,-0.04,1.50,3.49
7.279,-1.46,1.37,1.52,2.51
7.289,0.42,2.84,2.01,3.50
7.299,2.24,4.15,2.57,5.37
7.309,3.63,5.38,2.82,7.08
7.319,4.26,5.95,2.58,7.76
7.329,4.13,4.98,2.05,6.79
7.339,3.58,2.33,1.18,4.43
7.349,2.75,-1.30,0.19,3.04
7.359,1.82,-3.27,-0.39,3.76
7.369,1.49,-3.61,-0.86,4.00
7.379,1.39,-4.05,-0.86,4.36
7.389,1.25,-4.29,-0.65,4.51
7.399,1.11,-4.10,-0.44,4.27
7.409,1.02,-3.85,-0.27,3.99
7.419,0.71,-3.32,-0.01,3.39
7.429,0.27,-2.85,0.06,2.86
7.439,-0.11,-2.59,0.26,2.61
7.449,-0.42,-2.25,0.43,2.33
7.459,-0.59,-1.98,0.52,2.13
7.469,-0.74,-1.75,0.61,2.00
7.479,-1.01,-1.70,0.78,2.13
7.489,-1.28,-1.99,0.98,2.56
7.499,-1.40,-2.57,1.09,3.12
7.509,-1.37,-3.12,1.03,3.56
7.519,-1.22,-3.59,0.76,3.87
7.528,-1.01,-4.00,0.35,4.14
7.539,-0.83,-4.16,-0.03,4.24
7.549,-0.68,-4.25,-0.21,4.31
7.559,-0.46,-4.41,-0.33,4.45
7.569,-0.08,-4.37,-0.32,4.39
7.579,0.51,-3.80,-0.36,3.86
7.589,1.23,-1.97,-0.57,2.39
7.598,2.31,0.43,-1.00,2.55
7.609,3.58,2.21,-2.52,4.90
7.618,4.67,5.04,-4.53,8.23
7.629,5.27,5.78,-6.33,10.06
7.638,4.30,4.74,-6.80,9.34
7.649,2.68,3.27,-6.02,7.35
7.658,1.60,1.52,-4.52,5.03
7.668,1.19,0.79,-3.17,3.47
7.678,1.30,0.85,-1.91,2.46
7.688,1.46,1.58,0.09,2.15
7.698,0.76,3.30,2.11,3.99
7.709,-0.43,7.92,2.27,8.25
7.718,-0.39,15.36,0.03,15.37
7.730,0.65,20.38,-2.73,20.57
7.738,-2.12,15.77,-0.78,15.93
7.748,-5.30,7.42,3.11,9.63
7.758,-4.84,1.50,4.93,7.07
7.768,-3.30,-1.64,5.89,6.95
7.778,-2.49,-2.47,5.85,6.83
7.788,-1.88,-1.99,5.08,5.77
7.798,-0.69,-1.81,3.65,4.13
7.808,0.65,-2.38,1.90,3.11
7.818,0.67,-2.40,0.26,2.51
7.828,-0.88,-1.57,-0.73,1.94
7.838,-3.56,-0.83,-0.89,3.76
7.848,-6.06,-0.43,-0.82,6.13
7.858,-6.72,-0.47,-0.49,6.76
7.868,-5.98,-0.83,-0.25,6.04
7.878,-4.57,-0.97,-0.39,4.68
7.888,-2.94,-1.14,0.00,3.16
7.898,-2.11,-1.41,0.66,2.63
7.908,-1.93,-2.09,0.94,3.00
7.918,-1.86,-2.92,0.37,3.48
7.928,-1.70,-3.78,-0.40,4.16
7.938,-1.61,-4.29,-1.09,4.71
7.948,-1.39,-3.76,-1.55,4.30
7.958,-1.17,-2.40,-1.45,3.04
7.968,-1.05,-0.69,-0.96,1.58
7.978,-1.06,0.90,-0.39,1.44
7.988,-1.03,1.82,0.08,2.09
7.998,-1.04,1.62,0.06,1.93
8.008,-0.88,1.15,-0.38,1.49
8.018,-0.53,0.54,-0.61,0.97
8.028,-0.45,-0.31,-0.44,0.70
8.038,-0.86,-1.14,-0.28,1.46
8.048,-1.32,-1.86,-0.48,2.33
8.058,-1.29,-2.21,-0.85,2.69
8.068,-0.84,-2.20,-1.48,2.78
8.078,-0.27,-1.92,-2.33,3.03
8.088,0.36,-1.54,-3.13,3.51
8.098,0.98,-1.08,-3.55,3.84
8.108,1.60,-0.60,-3.48,3.88
8.118,1.88,-0.25,-3.24,3.76
8.128,1.84,-0.05,-3.31,3.78
8.137,1.62,0.07,-3.36,3.73
8.148,1.75,0.28,-3.67,4.08
8.158,2.38,0.24,-3.70,4.40
8.168,2.79,0.12,-3.35,4.36
8.178,2.86,0.19,-3.16,4.27
8.187,3.32,0.19,-3.47,4.81
8.197,3.70,0.22,-3.88,5.36
8.208,3.50,0.69,-3.80,5.21
8.218,2.84,1.08,-3.41,4.57
8.228,2.55,0.56,-3.84,4.64
8.237,2.59,-0.12,-4.42,5.13
8.248,2.95,0.17,-3.57,4.63
8.258,3.45,0.72,-1.71,3.92
8.268,2.71,0.39,-0.80,2.85
8.278,1.77,-0.46,-0.73,1.97
8.288,0.74,-1.27,-0.32,1.50
8.298,-0.50,-1.81,0.41,1.92
8.308,-1.58,-1.96,1.51,2.94
8.318,-2.66,-2.00,2.56,4.20
8.328,-3.63,-1.65,3.85,5.54
8.337,-4.64,-0.88,5.07,6.93
8.347,-5.72,1.04,4.79,7.53
8.357,-6.74,4.26,3.78,8.82
8.368,-6.75,8.57,2.83,11.27
8.377,-4.84,10.90,2.56,12.20
8.387,-1.91,11.28,2.51,11.72
8.398,1.01,10.68,2.41,11.00
8.408,3.25,9.36,2.86,10.31
8.417,4.38,7.63,3.55,9.48
8.427,4.87,5.48,3.75,8.24
8.437,5.18,2.84,3.51,6.87
8.447,5.08,-0.14,3.03,5.92
8.457,4.62,-4.84,1.58,6.87
8.467,3.64,-7.01,1.10,7.98
8.477,3.12,-5.52,-0.39,6.35
8.487,2.90,-6.32,-1.27,7.07
8.497,2.54,-6.78,-0.92,7.30
8.507,1.80,-7.13,-0.84,7.40
8.517,0.61,-6.32,-0.53,6.37
8.527,-0.85,-5.75,-0.57,5.84
8.537,-1.91,-5.44,-0.19,5.77
8.547,-2.43,-5.05,0.23,5.60
8.557,-2.52,-4.42,0.61,5.12
8.567,-2.37,-3.59,1.10,4.44
8.577,-2.22,-2.88,1.39,3.89
8.587,-2.13,-2.41,1.37,3.49
8.597,-2.22,-1.92,1.27,3.20
8.607,-2.20,-1.53,1.21,2.94
8.617,-2.06,-1.09,1.36,2.70
8.627,-1.66,-0.88,1.67,2.52
8.637,-1.10,-1.00,1.96,2.46
8.647,-0.71,-0.96,1.86,2.21
8.657,-0.44,-0.62,1.29,1.50
8.667,0.38,-0.43,0.68,0.89
8.677,1.67,0.37,0.43,1.76
8.687,3.04,2.59,-0.04,4.00
8.697,4.55,4.92,-1.03,6.78
8.707,5.89,5.76,-2.75,8.69
8.717,5.82,5.45,-4.54,9.17
8.727,4.03,4.31,-5.18,7.85
8.737,1.87,3.66,-4.73,6.27
8.747,0.68,2.66,-4.10,4.93
8.757,0.79,1.12,-3.47,3.73
8.767,1.45,0.36,-2.48,2.89
8.777,1.50,0.31,-1.60,2.21
8.787,1.18,1.07,-0.56,1.68
8.797,0.67,3.43,0.63,3.55
8.807,0.31,7.26,1.27,7.37
8.817,0.51,10.85,0.74,10.88
8.827,0.20,11.62,-0.00,11.62
8.836,-1.70,9.56,1.37,9.81
8.847,-3.05,5.42,2.72,6.79
8.857,-3.62,1.24,3.39,5.11
8.867,-3.22,-1.84,4.20,5.61
8.877,-2.31,-3.42,4.67,6.23
8.886,-1.50,-3.07,4.45,5.61
8.896,-0.84,-2.27,3.30,4.09
8.907,-0.29,-2.03,1.76,2.70
8.917,0.41,-1.59,0.26,1.66
8.927,0.62,-1.33,-0.59,1.58
8.936,-0.56,-1.06,-0.72,1.40
8.946,-2.80,-0.45,-0.52,2.88
8.957,-4.60,0.06,-0.27,4.61
8.967,-5.22,-0.08,0.16,5.23
8.976,-4.59,-0.52,0.34,4.64
8.986,-3.69,-1.01,0.54,3.86
8.996,-3.18,-1.51,0.68,3.59
9.006,-2.76,-2.14,0.95,3.62
9.016,-2.82,-2.81,0.80,4.06
9.026,-2.71,-3.79,0.12,4.66
9.036,-2.63,-4.76,-0.43,5.46
9.046,-2.53,-5.23,-0.99,5.90
9.056,-2.27,-4.81,-1.40,5.50
9.066,-1.96,-3.65,-1.48,4.40
9.076,-1.77,-2.11,-1.16,3.00
9.086,-1.60,-0.31,-0.60,1.74
9.096,-1.34,1.44,0.05,1.97
9.106,-0.89,2.84,0.58,3.04
9.116,-0.78,3.38,0.85,3.57
9.126,-0.77,3.53,0.38,3.63
9.136,-0.42,3.21,-0.23,3.25
9.146,-0.25,2.28,-0.57,2.36
9.156,-0.48,0.73,-1.10,1.40
9.166,-0.78,-0.75,-1.67,1.99
9.176,-0.68,-1.60,-2.36,2.93
9.186,-0.30,-1.88,-3.04,3.59
9.196,0.19,-1.75,-3.57,3.99
9.206,0.82,-1.49,-3.80,4.16
9.216,1.55,-1.30,-3.59,4.12
9.226,2.00,-1.20,-3.08,3.86
9.236,2.24,-0.88,-2.64,3.57
9.246,2.49,-0.51,-2.60,3.63
9.256,2.44,-0.00,-2.71,3.65
9.266,2.50,0.51,-2.72,3.73
9.276,2.56,0.90,-2.61,3.77
9.286,2.72,0.99,-2.52,3.84
9.296,2.95,0.87,-2.63,4.04
9.306,3.14,0.85,-2.96,4.40
9.316,3.10,1.05,-3.35,4.68
9.326,2.72,1.39,-3.32,4.51
9.336,2.45,1.12,-3.41,4.35
9.346,2.29,0.03,-3.91,4.53
9.356,2.34,-0.70,-3.85,4.56
9.366,2.62,-0.67,-2.63,3.77
9.376,2.56,-0.49,-1.25,2.89
9.386,2.00,-0.76,-0.70,2.25
9.396,0.96,-1.34,-0.60,1.75
9.406,-0.30,-1.94,-0.36,2.00
9.416,-1.37,-2.20,0.37,2.62
9.426,-2.33,-2.00,1.22,3.31
9.436,-3.28,-1.55,1.94,4.11
9.446,-3.99,-0.98,2.97,5.07
9.456,-4.68,-0.53,4.05,6.21
9.466,-5.27,0.56,4.45,6.92
9.476,-5.87,3.19,4.02,7.80
9.486,-5.95,6.91,3.02,9.61
9.495,-4.47,9.59,2.48,10.87
9.506,-1.79,10.92,2.31,11.31
9.517,1.28,11.09,2.31,11.40
9.526,3.81,10.28,3.08,11.39
9.536,5.37,8.43,3.73,10.67
9.546,5.99,5.81,3.80,9.17
9.555,6.11,2.74,3.46,7.54
9.566,5.76,-0.67,2.75,6.42
9.575,5.00,-5.24,1.33,7.37
9.586,3.53,-7.28,0.30,8.09
9.595,2.74,-5.76,-1.26,6.50
9.606,2.28,-6.62,-1.87,7.25
9.615,1.99,-6.70,-1.34,7.12
9.625,1.25,-6.33,-1.07,6.54
9.635,0.16,-6.03,-0.87,6.09
9.646,-0.81,-5.87,-0.77,5.97
9.656,-1.47,-5.60,-0.46,5.80
9.666,-1.85,-5.03,0.19,5.36
9.675,-2.10,-4.16,0.74,4.72
9.685,-2.28,-3.18,1.10,4.06
9.695,-2.40,-2.40,1.16,3.59
9.706,-2.48,-1.88,0.99,3.27
9.715,-2.52,-1.57,0.74,3.06
9.725,-2.43,-1.57,0.56,2.95
9.735,-2.10,-1.80,0.69,2.85
9.745,-1.56,-2.10,0.97,2.79
9.755,-0.90,-2.56,1.09,2.93
9.765,-0.29,-2.87,1.01,3.06
9.775,0.27,-2.64,0.82,2.78
9.785,0.87,-1.48,0.81,1.90
9.795,1.77,0.93,0.85,2.17
9.805,2.88,3.13,0.15,4.26
9.815,4.16,5.93,-1.12,7.33
9.825,5.34,7.52,-2.63,9.59
9.835,5.32,6.53,-3.95,9.30
9.845,3.39,4.84,-4.73,7.57
9.855,1.11,3.69,-4.75,6.11
9.865,0.18,2.19,-4.16,4.70
9.875,0.70,0.80,-3.44,3.60
9.885,1.73,0.46,-2.66,3.21
9.895,2.28,0.44,-1.67,2.86
9.905,2.16,0.68,-0.53,2.32
9.915,1.42,2.11,0.38,2.58
9.925,0.61,5.42,0.61,5.48
9.935,0.05,9.65,0.28,9.65
9.945,-0.21,13.31,-1.01,13.35
9.956,-1.57,12.42,-0.60,12.54
9.965,-3.02,8.31,1.81,9.03
9.975,-3.57,3.01,3.43,5.79
9.985,-3.58,-1.28,4.62,5.98
9.995,-2.89,-3.69,5.46,7.20
10.005,-2.20,-4.03,5.24,6.96
10.015,-1.52,-3.36,4.15,5.55
10.025,-0.63,-3.24,2.66,4.24
10.035,0.15,-3.16,1.27,3.40
10.045,0.47,-2.76,0.17,2.81
10.055,-0.09,-2.30,-0.26,2.32
10.065,-1.55,-1.11,-0.27,1.92
10.075,-3.31,0.22,-0.11,3.32
10.085,-4.16,0.92,-0.22,4.26
10.095,-3.77,0.82,-0.22,3.86
10.105,-3.03,0.12,-0.01,3.03
10.115,-2.62,-0.52,0.43,2.71
10.125,-2.43,-1.01,0.98,2.81
10.135,-2.47,-2.08,0.94,3.37
10.145,-2.79,-3.38,0.42,4.40
10.154,-2.84,-4.59,-0.27,5.41
10.165,-2.77,-5.28,-0.85,6.02
10.175,-2.61,-5.12,-1.28,5.89
10.185,-2.33,-4.25,-1.45,5.06
10.195,-2.27,-2.53,-1.14,3.59
10.205,-2.32,-0.61,-0.47,2.44
10.214,-2.24,1.01,0.30,2.48
10.225,-1.72,2.26,0.76,2.94
10.235,-1.08,2.74,0.70,3.03
10.245,-0.77,2.52,0.20,2.65
10.254,-0.57,2.13,-0.51,2.27
10.265,-0.26,1.70,-1.16,2.08
10.274,-0.19,0.87,-1.86,2.06
10.285,-0.40,-0.32,-2.28,2.34
10.294,-0.43,-1.16,-2.54,2.82
10.304,-0.05,-1.42,-2.82,3.16
10.314,0.39,-1.52,-3.14,3.51
10.325,0.84,-1.34,-3.20,3.57
10.334,1.36,-1.22,-2.91,3.44
10.345,1.81,-1.24,-2.58,3.39
10.354,2.05,-1.14,-2.53,3.45
10.364,2.28,-1.04,-2.76,3.73
10.374,2.52,-0.75,-2.87,3.89
10.385,3.29,-0.14,-2.81,4.33
10.394,4.19,0.30,-2.73,5.01
10.404,4.65,0.67,-2.85,5.50
10.414,4.74,0.85,-3.07,5.71
10.424,4.56,1.11,-3.39,5.80
10.434,4.04,1.70,-3.40,5.55
10.444,3.41,1.69,-3.25,5.01
10.454,3.08,0.61,-3.53,4.72
10.464,2.98,-0.62,-3.90,4.94
10.474,3.12,-1.03,-3.62,4.89
10.484,2.86,-0.86,-2.58,3.94
10.494,2.16,-1.06,-1.80,3.01
10.504,1.26,-1.56,-1.43,2.46
10.514,0.07,-1.89,-0.83,2.06
10.524,-0.99,-1.69,0.26,1.98
10.534,-1.95,-1.04,1.37,2.60
10.544,-2.75,-0.32,2.12,3.49
10.554,-4.00,0.07,3.16,5.10
10.564,-5.75,0.74,4.22,7.17
10.574,-6.70,2.70,4.74,8.64
10.584,-6.97,5.83,4.74,10.25
10.594,-5.96,8.96,4.19,11.54
10.604,-3.71,10.84,3.20,11.89
10.614,-1.29,11.40,2.61,11.77
10.625,1.21,10.75,2.66,11.13
10.634,3.29,9.05,3.37,10.21
10.644,4.73,6.85,4.15,9.30
10.654,5.68,4.33,4.30,8.34
10.664,5.92,1.55,3.81,7.21
10.674,5.64,-2.29,2.28,6.50
10.684,4.57,-6.73,0.65,8.17
10.694,3.25,-5.75,-0.28,6.61
10.704,2.47,-6.81,-2.08,7.54
10.714,2.03,-7.40,-1.92,7.91
10.724,1.66,-7.62,-1.78,8.00
10.734,0.82,-7.28,-1.58,7.49
10.744,-0.12,-6.89,-1.30,7.01
10.754,-0.94,-6.73,-0.79,6.84
10.764,-1.47,-6.35,0.12,6.52
10.774,-1.87,-5.61,0.89,5.98
10.784,-2.00,-4.70,1.31,5.28
10.794,-1.74,-3.67,1.56,4.35
10.804,-1.38,-2.67,1.58,3.40
10.814,-1.17,-1.92,1.24,2.56
10.824,-1.19,-1.20,0.74,1.85
10.834,-1.33,-0.50,0.48,1.50
10.844,-1.23,-0.15,0.76,1.45
10.854,-0.93,-0.47,1.10,1.52
10.864,-0.64,-1.00,1.19,1.68
10.874,-0.44,-0.95,1.06,1.49
10.884,-0.13,-0.21,0.84,0.87
10.894,0.59,1.31,0.76,1.63
10.904,1.75,3.11,0.23,3.57
10.913,3.41,5.12,-0.72,6.20
10.923,5.16,6.62,-2.44,8.74
10.934,5.92,6.25,-4.24,9.60
10.944,4.74,4.07,-5.02,8.01
10.954,2.56,2.50,-5.17,6.29
10.963,0.97,1.11,-4.86,5.08
10.974,0.69,-0.43,-4.08,4.16
10.984,1.18,-1.10,-2.85,3.27
10.993,1.19,-0.99,-1.72,2.32
11.003,0.85,-0.11,-0.58,1.04
11.013,0.42,2.25,0.49,2.34
11.023,0.05,7.08,1.37,7.21
11.033,-0.20,12.49,1.37,12.57
11.044,-0.11,15.74,-0.03,15.74
11.054,-1.83,13.35,0.82,13.50
11.063,-3.57,7.52,2.43,8.67
11.073,-3.78,1.54,3.45,5.35
11.083,-2.85,-2.59,4.78,6.14
11.093,-1.85,-4.36,5.35,7.14
11.103,-1.17,-4.20,4.69,6.41
11.113,-0.46,-3.01,3.26,4.47
11.123,0.24,-2.55,1.61,3.03
11.133,0.48,-2.49,0.27,2.55
11.143,0.14,-2.16,-0.60,2.25
11.153,-1.43,-1.61,-0.92,2.34
11.163,-3.52,-0.58,-1.09,3.73
11.173,-4.89,0.12,-0.97,4.99
11.183,-4.94,0.01,-0.37,4.95
11.193,-4.19,-0.27,0.13,4.20
11.203,-3.11,-0.42,0.59,3.19
11.213,-2.36,-0.62,1.33,2.77
11.223,-2.02,-1.33,1.82,3.03
11.233,-2.26,-2.41,1.76,3.75
11.243,-2.24,-3.70,0.79,4.40
11.253,-2.22,-4.71,-0.16,5.21
11.263,-2.20,-4.95,-0.93,5.50
11.273,-2.15,-4.36,-1.32,5.04
11.283,-2.07,-3.19,-1.43,4.07
11.293,-1.99,-1.63,-1.02,2.77
11.303,-1.90,0.02,-0.35,1.93
11.313,-1.69,1.47,0.27,2.26
11.323,-1.34,2.44,0.64,2.85
11.333,-1.34,2.60,0.53,2.98
11.343,-1.37,2.28,-0.19,2.66
11.353,-0.98,1.91,-1.04,2.39
11.363,-0.68,1.25,-1.58,2.12
11.373,-0.90,0.05,-1.96,2.15
11.383,-1.08,-0.89,-2.30,2.69
11.393,-0.78,-1.38,-2.73,3.15
11.403,-0.34,-1.84,-3.36,3.84
11.413,0.15,-2.06,-3.66,4.21
11.423,0.83,-2.18,-3.62,4.31
11.433,1.50,-2.36,-3.36,4.37
11.443,1.99,-2.19,-3.13,4.31
11.453,2.44,-1.63,-2.80,4.05
11.462,3.23,-0.72,-2.53,4.16
11.472,4.53,0.10,-2.29,5.08
11.483,5.21,0.80,-2.24,5.73
11.493,5.33,1.44,-2.77,6.18
11.503,5.13,2.06,-3.44,6.51
11.513,4.59,2.86,-3.63,6.52
11.523,3.92,3.16,-3.39,6.07
11.533,3.41,2.18,-3.40,5.28
11.543,2.88,0.72,-3.39,4.51
11.553,2.77,-0.07,-3.00,4.09
11.562,2.84,-0.35,-2.21,3.62
11.572,2.50,-0.60,-1.63,3.04
11.583,1.94,-0.74,-1.54,2.58
11.593,0.94,-0.93,-1.51,2.01
11.603,-0.25,-1.24,-1.09,1.67
11.612,-1.26,-1.35,-0.11,1.85
11.622,-2.24,-1.29,0.91,2.74
11.633,-3.26,-1.21,1.87,3.95
11.642,-4.41,-0.94,3.09,5.47
11.653,-5.47,-0.73,4.37,7.04
11.662,-6.37,0.68,4.83,8.02
11.672,-6.92,3.65,4.26,8.91
11.682,-6.16,7.14,3.52,10.06
11.692,-3.90,9.42,3.22,10.69
11.702,-1.27,10.17,3.11,10.71
11.713,1.39,10.13,3.00,10.65
11.722,3.60,9.21,3.53,10.50
11.732,4.98,7.44,4.16,9.87
11.742,5.68,5.04,4.24,8.69
11.752,5.96,1.91,3.82,7.34
11.762,5.49,-1.70,2.71,6.35
11.772,4.44,-6.59,0.67,7.97
11.782,2.82,-7.00,-0.09,7.55
11.792,1.98,-6.40,-1.90,6.96
11.802,1.47,-6.79,-1.85,7.19
11.812,1.11,-6.80,-1.57,7.07
11.822,0.49,-6.76,-1.39,6.91
11.832,-0.43,-6.50,-0.99,6.59
11.842,-1.35,-6.23,-0.79,6.42
11.852,-1.82,-5.96,-0.10,6.24
11.862,-2.08,-5.15,0.63,5.59
11.872,-2.21,-4.06,1.11,4.75
11.882,-2.19,-2.79,1.30,3.78
11.892,-2.08,-1.70,1.24,2.96
11.902,-2.02,-1.04,0.87,2.43
11.912,-1.94,-0.86,0.51,2.18
11.922,-1.83,-1.05,0.52,2.17
11.932,-1.50,-1.49,0.85,2.28
11.942,-1.12,-2.03,1.12,2.58
11.952,-0.86,-2.32,0.98,2.66
11.962,-0.49,-1.89,0.65,2.05
11.972,0.24,-0.43,0.38,0.62
11.982,1.42,0.91,0.06,1.69
11.992,3.01,2.89,-0.26,4.19
12.002,4.95,5.52,-1.14,7.50
12.012,6.70,7.34,-2.88,10.34
12.022,6.78,6.49,-4.13,10.25
12.032,5.14,4.44,-4.68,8.25
12.042,3.21,2.47,-4.74,6.24
12.052,2.21,0.92,-4.44,5.04
12.062,2.01,0.09,-3.72,4.23
12.072,1.88,0.02,-2.92,3.47
12.082,1.33,0.50,-2.10,2.54
12.092,0.42,2.28,-1.01,2.53
12.102,-0.68,6.72,-0.12,6.75
12.112,-1.08,12.84,-0.24,12.89
12.122,-1.27,15.47,-1.38,15.59
12.132,-3.09,12.77,0.74,13.16
12.142,-4.81,7.04,3.86,9.35
12.151,-5.18,1.37,5.44,7.64
12.162,-4.18,-2.41,6.38,8.00
12.171,-2.88,-4.33,6.23,8.11
12.182,-2.18,-4.32,5.30,7.18
12.192,-1.22,-3.11,3.82,5.08
12.202,0.25,-2.60,2.18,3.40
12.212,0.85,-2.53,0.59,2.74
12.222,0.39,-1.81,-0.83,2.03
12.231,-1.31,-0.83,-1.40,2.09
12.242,-3.18,0.18,-1.63,3.58
12.252,-4.06,0.72,-1.49,4.39
12.262,-3.88,0.41,-1.07,4.05
12.271,-3.02,-0.20,-0.81,3.13
12.282,-2.16,-0.81,-0.33,2.33
12.291,-1.77,-1.29,0.54,2.26
12.302,-1.69,-2.05,1.10,2.88
12.311,-2.19,-3.12,1.04,3.95
12.322,-2.54,-4.46,0.41,5.14
12.331,-2.60,-5.51,-0.14,6.10
12.341,-2.50,-5.91,-0.52,6.44
12.351,-2.35,-5.23,-0.66,5.78
12.361,-2.24,-3.77,-0.41,4.41
12.371,-2.17,-1.77,0.12,2.80
12.382,-2.22,0.23,0.65,2.33
12.391,-2.13,2.07,0.98,3.13
12.401,-2.02,3.04,1.07,3.81
12.411,-1.92,3.34,0.64,3.90
12.421,-1.57,3.22,-0.15,3.59
12.431,-0.99,2.69,-0.79,2.97
12.441,-0.49,1.87,-1.28,2.32
12.451,-0.32,0.59,-1.87,1.99
12.461,-0.28,-0.48,-2.44,2.51
12.471,0.02,-1.05,-3.00,3.18
12.481,0.53,-1.48,-3.62,3.95
12.491,1.06,-1.67,-4.03,4.48
12.501,1.56,-1.76,-4.04,4.67
12.511,1.99,-1.91,-3.74,4.65
12.521,1.97,-1.76,-3.17,4.12
12.531,2.07,-1.19,-2.88,3.74
12.541,2.77,-0.47,-2.61,3.83
12.551,3.64,-0.07,-2.52,4.42
12.561,4.02,0.11,-2.51,4.74
12.571,3.86,0.27,-2.80,4.77
12.581,3.67,0.45,-3.43,5.04
12.591,3.60,0.97,-4.01,5.47
12.601,3.22,1.70,-3.89,5.33
12.611,2.70,1.82,-3.52,4.79
12.621,2.43,0.99,-3.60,4.45
12.631,2.30,0.25,-3.55,4.23
12.641,2.70,0.03,-2.93,3.98
12.651,2.62,0.04,-1.67,3.11
12.661,1.94,-0.27,-0.82,2.12
12.671,1.36,-0.91,-0.53,1.72
12.681,0.17,-1.48,-0.14,1.50
12.691,-1.02,-1.54,0.53,1.93
12.701,-1.95,-1.07,1.36,2.60
12.711,-2.92,-0.59,2.22,3.71
12.721,-4.05,-0.40,3.31,5.24
12.731,-5.14,0.12,4.49,6.83
12.741,-6.13,1.47,4.33,7.65
12.751,-7.24,4.38,3.57,9.18
12.761,-7.22,7.65,2.98,10.94
12.771,-5.04,9.29,2.61,10.89
12.781,-1.94,9.56,2.61,10.10
12.791,1.16,9.13,2.87,9.64
12.801,3.45,8.01,3.65,9.45
12.811,4.77,6.48,4.47,9.20
12.821,5.70,4.73,4.63,8.73
12.831,6.14,2.44,4.28,7.87
12.841,5.96,-0.98,3.07,6.77
12.850,4.95,-5.01,1.61,7.22
12.861,3.63,-4.90,0.19,6.09
12.871,2.95,-6.15,-1.62,7.02
12.881,2.16,-6.88,-1.67,7.41
12.891,1.70,-6.57,-1.78,7.02
12.900,1.18,-6.15,-1.55,6.45
12.911,0.42,-6.03,-1.40,6.20
12.921,-0.60,-5.96,-1.27,6.12
12.931,-1.47,-5.57,-0.81,5.81
12.940,-1.96,-4.94,-0.08,5.31
12.950,-2.23,-4.21,0.47,4.79
12.961,-2.31,-3.30,0.92,4.13
12.970,-2.18,-2.42,1.07,3.43
12.981,-2.06,-1.81,0.99,2.92
12.990,-1.85,-1.59,0.99,2.64
13.000,-1.55,-1.63,1.16,2.53
13.010,-1.05,-1.71,1.43,2.46
13.020,-0.47,-2.02,1.75,2.72
13.030,0.10,-2.45,1.75,3.01
13.040,0.48,-2.26,1.25,2.63
13.050,0.69,-0.89,0.81,1.39
13.060,1.03,0.76,0.73,1.48
13.070,1.52,2.59,0.68,3.07
13.080,2.49,5.20,0.13,5.77
13.090,4.04,7.63,-1.77,8.82
13.100,4.96,7.82,-3.83,10.02
13.110,3.80,6.16,-4.81,8.69
13.120,1.82,4.07,-4.76,6.52
13.130,0.50,1.56,-4.19,4.50
13.140,0.25,-0.70,-3.38,3.46
13.150,0.60,-1.25,-2.23,2.62
13.160,0.60,-1.02,-1.38,1.81
13.170,0.24,0.33,-0.58,0.70
13.180,-0.15,3.66,-0.06,3.66
13.190,-0.21,8.50,0.29,8.51
13.200,0.51,13.09,-0.30,13.10
13.211,0.30,13.19,-0.40,13.20
13.220,-1.66,9.65,1.46,9.90
13.230,-3.03,4.51,3.11,6.26
13.240,-3.47,-0.03,4.08,5.36
13.250,-2.73,-2.95,4.92,6.36
13.260,-1.55,-4.36,5.01,6.82
13.270,-0.69,-4.17,4.22,5.97
13.280,0.37,-3.33,2.74,4.33
13.290,1.34,-2.91,1.25,3.44
13.300,1.68,-2.61,-0.05,3.10
13.310,1.10,-2.25,-0.87,2.65
13.320,-1.07,-1.26,-1.13,2.00
13.330,-3.77,0.01,-1.34,4.01
13.340,-5.24,0.71,-1.58,5.52
13.350,-5.25,0.80,-1.29,5.47
13.360,-4.08,0.59,-0.84,4.21
13.370,-2.98,0.40,0.07,3.01
13.380,-2.17,-0.24,0.63,2.27
13.390,-2.13,-1.36,1.03,2.73
13.400,-2.39,-2.59,0.86,3.63
13.410,-2.27,-3.82,0.43,4.46
13.420,-2.24,-4.51,-0.04,5.04
13.430,-2.14,-4.34,-0.55,4.87
13.440,-1.96,-3.33,-0.77,3.94
13.450,-1.96,-1.84,-0.56,2.75
13.460,-2.14,-0.17,-0.05,2.15
13.469,-2.18,1.24,0.51,2.56
13.480,-1.81,1.97,1.06,2.88
13.490,-1.55,1.81,1.24,2.69
13.500,-1.61,1.44,0.81,2.30
13.510,-1.58,1.09,-0.04,1.92
13.520,-1.42,0.59,-0.75,1.71
13.530,-1.51,-0.32,-1.18,1.94
13.540,-1.79,-1.20,-1.65,2.72
13.550,-1.77,-1.61,-2.17,3.23
13.560,-1.32,-1.93,-2.87,3.70
13.570,-0.82,-1.93,-3.52,4.09
13.579,-0.31,-1.65,-3.85,4.20
13.589,0.28,-1.22,-3.84,4.04
13.600,0.88,-0.73,-3.60,3.78
13.610,1.49,-0.22,-3.45,3.77
13.619,2.15,0.22,-3.27,3.92
13.629,3.11,0.57,-3.13,4.45
13.640,4.37,0.72,-2.87,5.28
13.649,5.06,0.74,-2.67,5.77
13.660,5.22,0.72,-2.84,5.99
13.669,4.99,0.84,-3.23,6.01
13.680,4.36,1.44,-3.21,5.60
13.689,3.50,1.82,-2.65,4.75
13.700,3.12,1.07,-2.44,4.10
13.709,2.88,-0.10,-2.54,3.84
13.719,2.97,-0.74,-2.57,3.99
13.729,3.01,-0.65,-1.90,3.62
13.739,2.44,-0.46,-1.09,2.71
13.749,1.86,-0.50,-1.03,2.18
13.759,0.82,-0.68,-1.38,1.74
13.769,-0.66,-1.00,-1.29,1.76
13.779,-1.67,-1.17,-0.61,2.13
13.789,-2.63,-1.19,0.44,2.92
13.799,-3.46,-1.05,1.34,3.86
13.809,-4.37,-0.84,2.35,5.03
13.820,-5.40,-0.67,3.50,6.47
13.829,-6.40,0.30,4.49,7.82
13.839,-6.97,2.72,4.72,8.84
13.849,-6.53,6.65,4.36,10.29
13.859,-4.59,10.03,3.36,11.53
13.869,-1.89,11.30,3.13,11.87
13.880,1.00,11.58,3.17,12.04
13.890,3.39,10.58,3.68,11.71
13.899,5.05,8.12,4.28,10.47
13.909,6.19,5.22,4.23,9.13
13.919,6.58,1.82,3.80,7.82
13.929,6.16,-2.32,2.49,7.04
13.939,5.10,-7.25,0.60,8.89
13.949,3.80,-6.29,-0.52,7.36
13.959,3.05,-6.29,-2.34,7.37
13.969,2.23,-6.63,-1.90,7.25
13.979,1.68,-6.80,-1.67,7.20
13.989,0.73,-6.46,-1.27,6.63
13.999,-0.33,-6.40,-0.94,6.48
14.009,-1.14,-6.46,-0.47,6.58
14.019,-1.54,-6.38,0.25,6.57
14.029,-1.72,-5.63,0.93,5.97
14.039,-1.90,-4.60,1.44,5.18
14.049,-1.95,-3.39,1.70,4.26
14.059,-1.94,-2.24,1.62,3.37
14.069,-1.86,-1.22,1.38,2.62
14.079,-1.67,-0.46,1.06,2.03
14.088,-1.43,-0.24,0.89,1.70
14.099,-1.03,-0.60,0.90,1.49
14.109,-0.63,-1.29,1.04,1.77
14.119,-0.37,-1.91,1.08,2.23
14.129,-0.22,-2.02,0.82,2.19
14.139,-0.09,-1.35,0.30,1.38
14.149,0.32,-0.33,-0.11,0.48
14.159,1.33,1.14,-0.33,1.78
14.169,2.84,3.33,-0.67,4.43
14.179,4.49,5.96,-1.57,7.63
14.189,5.40,6.54,-2.97,8.99
14.199,4.56,5.44,-4.22,8.26
14.209,2.60,4.09,-4.57,6.66
14.219,1.36,2.61,-4.14,5.08
14.229,1.56,0.74,-3.35,3.77
14.238,2.37,-0.17,-2.38,3.36
14.249,2.57,-0.12,-1.54,3.00
14.259,2.24,0.48,-0.46,2.34
14.269,1.62,2.05,0.64,2.69
14.278,0.82,6.25,1.29,6.43
14.288,0.33,11.69,0.36,11.70
14.299,0.10,14.60,-2.02,14.74
14.309,-2.06,13.30,-1.35,13.52
14.318,-3.38,8.36,1.96,9.22
14.328,-3.69,2.38,3.81,5.82
14.338,-3.36,-2.32,5.02,6.47
14.348,-2.53,-4.84,5.46,7.73
14.358,-2.01,-4.76,5.11,7.27
14.368,-1.50,-3.64,3.86,5.51
14.378,-0.85,-2.75,2.27,3.67
14.388,-0.28,-2.27,0.69,2.39
14.398,0.05,-2.37,-0.54,2.43
14.408,-0.60,-1.95,-0.97,2.26
14.418,-2.39,-0.82,-0.73,2.63
14.428,-4.48,0.11,-0.39,4.50
14.438,-5.68,0.63,-0.19,5.72
14.448,-5.24,0.82,0.12,5.30
14.458,-4.04,0.48,0.60,4.11
14.468,-2.91,0.03,1.19,3.15
14.478,-2.17,-0.76,1.56,2.78
14.488,-2.00,-1.78,1.47,3.06
14.498,-2.02,-3.07,0.67,3.74
14.508,-2.02,-4.28,-0.25,4.74
14.518,-2.08,-4.94,-0.97,5.45
14.528,-2.02,-4.73,-1.68,5.41
14.538,-1.91,-3.91,-2.03,4.80
14.548,-1.95,-2.73,-1.91,3.86
14.558,-1.92,-1.36,-1.38,2.73
14.568,-1.67,0.00,-0.54,1.75
14.578,-1.48,1.26,0.31,1.97
14.588,-1.17,2.02,0.62,2.42
14.598,-1.03,2.08,0.43,2.36
14.608,-0.95,1.78,-0.13,2.02
14.618,-0.70,1.34,-0.70,1.67
14.628,-0.56,0.63,-1.18,1.45
14.638,-0.60,-0.27,-1.65,1.78
14.648,-0.46,-0.71,-2.00,2.18
14.658,-0.10,-0.62,-2.43,2.51
14.668,0.42,-0.35,-3.05,3.10
14.678,0.90,-0.23,-3.52,3.64
14.688,1.30,-0.55,-3.53,3.81
14.698,1.76,-0.89,-3.27,3.82
14.708,2.17,-1.15,-2.97,3.86
14.718,2.65,-1.19,-2.75,4.00
14.728,3.08,-0.81,-2.61,4.12
14.738,3.78,-0.26,-2.70,4.65
14.748,4.00,0.34,-2.60,4.78
14.758,3.94,0.97,-2.52,4.78
14.768,3.89,1.34,-2.75,4.95
14.778,3.77,1.56,-3.31,5.25
14.788,3.28,1.77,-3.35,5.01
14.798,2.62,1.59,-2.96,4.26
14.808,2.47,0.67,-2.96,3.91
14.818,2.85,-0.25,-3.21,4.30
14.828,3.36,-0.38,-3.06,4.56
14.838,3.31,0.16,-2.07,3.91
14.848,2.62,0.33,-1.18,2.89
14.857,1.78,-0.13,-1.17,2.13
14.868,0.52,-0.75,-1.35,1.63
14.878,-0.89,-1.46,-1.04,2.00
14.888,-1.86,-1.91,-0.33,2.69
14.898,-2.72,-1.91,0.51,3.36
14.908,-3.35,-1.74,1.35,4.01
14.918,-4.14,-1.37,2.43,5.00
14.928,-5.10,-0.82,3.88,6.46
14.938,-6.10,0.56,4.88,7.83
14.947,-6.68,3.92,4.91,9.17
14.958,-6.00,8.42,4.14,11.13
14.968,-3.72,11.55,3.27,12.57
14.978,-0.89,12.39,3.02,12.79
14.988,1.88,11.88,3.03,12.40
14.998,3.78,10.08,3.70,11.38
15.007,4.73,7.44,4.08,9.72
15.018,5.16,4.25,3.79,7.69
15.027,5.20,0.63,3.29,6.18
15.038,4.55,-2.81,2.54,5.92
15.047,3.38,-7.14,0.60,7.92
15.058,2.21,-8.45,-0.30,8.74
15.068,1.62,-6.27,-1.37,6.62
15.077,1.33,-7.21,-1.81,7.55
15.087,0.86,-7.33,-1.19,7.48
15.097,0.30,-7.63,-0.96,7.70
15.107,-0.63,-7.34,-0.55,7.38
15.117,-1.50,-6.83,-0.31,7.00
15.127,-1.99,-6.49,0.17,6.79
15.137,-2.23,-5.89,0.70,6.33
15.147,-2.30,-5.02,1.14,5.64
15.157,-2.32,-4.02,1.45,4.86
15.167,-2.26,-3.21,1.53,4.21
15.177,-2.09,-2.65,1.39,3.64
15.187,-1.81,-2.20,1.02,3.03
15.197,-1.48,-1.84,0.64,2.45
15.207,-1.09,-1.39,0.56,1.85
15.217,-0.43,-1.00,0.89,1.41
15.227,0.17,-0.57,1.27,1.40
15.237,0.68,0.23,1.24,1.43
15.247,1.16,1.90,0.93,2.42
15.257,2.00,3.71,0.37,4.23
15.267,3.44,5.17,-0.39,6.22
15.277,5.19,6.90,-1.18,8.72
15.287,6.82,7.55,-2.82,10.56
15.297,6.93,5.66,-4.39,9.97
15.307,4.98,3.31,-5.19,7.92
15.317,2.58,1.58,-5.42,6.21
15.327,1.14,0.39,-5.20,5.34
15.337,0.94,-0.35,-4.23,4.35
15.347,1.18,-0.43,-2.76,3.03
15.357,1.05,-0.31,-1.40,1.77
15.367,0.38,0.79,-0.18,0.90
15.377,-0.50,4.41,0.73,4.49
15.387,-1.01,10.47,0.90,10.56
15.397,-0.53,15.40,-0.01,15.41
15.408,-1.35,15.08,1.46,15.21
15.417,-3.20,10.87,3.87,11.98
15.427,-4.16,4.96,4.40,7.83
15.437,-3.87,0.07,4.83,6.19
15.447,-2.98,-3.00,5.28,6.76
15.457,-2.04,-4.03,4.94,6.70
15.467,-1.07,-3.66,3.88,5.43
15.477,0.16,-3.22,2.23,3.92
15.487,1.05,-3.31,0.70,3.54
15.497,1.21,-3.11,-0.62,3.39
15.507,0.20,-2.73,-1.09,2.94
15.517,-2.02,-1.97,-1.09,3.02
15.527,-4.24,-1.09,-1.19,4.53
15.536,-5.13,-0.72,-1.28,5.34
15.547,-5.03,-0.83,-0.88,5.17
15.557,-4.41,-0.77,-0.38,4.49
15.566,-3.48,-0.83,0.52,3.62
15.577,-2.81,-1.01,1.16,3.21
15.587,-2.37,-1.68,1.46,3.25
15.596,-2.18,-2.98,1.09,3.85
15.606,-2.19,-4.34,0.05,4.86
15.616,-2.29,-4.93,-0.82,5.49
15.627,-2.33,-4.51,-1.28,5.23
15.637,-2.26,-3.23,-1.37,4.17
15.646,-2.10,-1.39,-0.98,2.70
15.656,-2.10,0.14,-0.36,2.14
15.666,-2.16,1.36,0.18,2.55
15.676,-1.79,2.06,0.52,2.78
15.686,-1.37,1.89,0.48,2.39
15.696,-1.24,1.38,-0.06,1.85
15.706,-0.86,1.00,-0.95,1.63
15.716,-0.65,0.24,-1.53,1.67
15.726,-0.92,-0.85,-1.96,2.32
15.736,-1.11,-1.64,-2.31,3.05
15.746,-1.03,-1.74,-2.62,3.31
15.756,-0.53,-1.40,-3.04,3.39
15.766,-0.02,-0.80,-3.48,3.57
15.776,0.45,-0.34,-3.59,3.63
15.786,1.18,-0.35,-3.43,3.64
15.796,1.76,-0.64,-3.28,3.78
15.806,2.16,-0.93,-3.28,4.04
15.816,2.63,-0.82,-3.05,4.11
15.826,3.61,-0.35,-2.85,4.61
15.836,4.38,0.19,-2.47,5.03
15.846,4.49,0.76,-2.16,5.04
15.856,4.34,1.07,-2.18,4.98
15.866,4.07,1.35,-2.42,4.92
15.876,3.37,1.50,-2.31,4.36
15.886,2.73,0.83,-2.21,3.61
15.896,2.41,-0.36,-2.45,3.45
15.906,2.74,-1.26,-3.02,4.27
15.916,3.29,-1.20,-3.03,4.63
15.926,3.19,-0.28,-2.30,3.94
15.936,2.84,0.37,-2.05,3.52
15.946,1.86,0.39,-2.18,2.90
15.956,0.49,0.29,-1.73,1.82
15.966,-0.92,0.41,-0.64,1.19
15.976,-2.09,0.77,0.49,2.28
15.986,-3.09,1.26,1.61,3.71
15.996,-4.26,1.20,2.84,5.26
16.006,-5.28,1.42,4.09,6.83
16.016,-5.63,2.67,4.36,7.61
16.026,-6.08,5.46,4.21,9.19
16.036,-5.38,8.51,3.98,10.82
16.046,-3.39,9.84,3.94,11.13
16.057,-0.98,9.69,3.87,10.48
16.066,1.45,8.95,4.13,9.96
16.076,3.30,7.43,4.61,9.35
16.086,4.57,5.51,4.84,8.64
16.096,5.34,3.25,4.48,7.69
16.105,5.64,-0.53,3.02,6.42
16.116,5.05,-4.83,1.66,7.19
16.126,4.06,-4.26,-0.04,5.89
16.136,3.45,-5.90,-2.09,7.14
16.146,2.71,-7.62,-2.09,8.35
16.156,1.88,-7.57,-2.24,8.11
16.166,1.17,-7.26,-2.26,7.70
16.176,0.54,-7.05,-1.94,7.33
16.186,-0.39,-6.85,-1.47,7.02
16.196,-1.22,-6.49,-0.70,6.64
16.206,-1.58,-6.28,0.18,6.48
16.216,-1.74,-5.49,0.82,5.82
16.226,-1.91,-4.20,1.31,4.79
16.236,-2.02,-2.86,1.41,3.77
16.246,-2.24,-1.83,1.16,3.11
16.255,-2.51,-0.92,0.71,2.76
16.266,-2.77,-0.16,0.41,2.80
16.276,-2.79,0.06,0.59,2.86
16.285,-2.42,-0.38,1.13,2.70
16.296,-1.86,-1.18,1.48,2.66
16.305,-1.22,-1.74,1.54,2.63
16.315,-0.55,-1.78,1.30,2.28
16.325,0.12,-1.02,0.91,1.37
16.335,1.10,0.46,0.60,1.33
16.345,2.46,2.31,0.27,3.38
16.355,4.26,5.15,-0.22,6.69
16.365,6.15,7.28,-1.48,9.64
16.375,6.58,7.27,-3.04,10.26
16.385,5.17,5.51,-3.90,8.50
16.395,2.96,3.70,-4.20,6.33
16.405,1.49,1.82,-4.36,4.95
16.415,1.32,0.06,-4.25,4.45
16.425,1.75,-0.59,-3.50,3.96
16.435,1.74,-0.45,-2.46,3.05
16.445,1.18,0.15,-1.20,1.68
16.455,0.31,2.47,0.25,2.51
16.465,-0.76,7.17,1.10,7.29
16.475,-1.26,12.53,0.71,12.62
16.485,-1.08,15.29,-0.09,15.33
16.496,-2.44,12.23,0.98,12.51
16.505,-3.77,6.40,2.64,7.88
16.515,-4.17,0.89,3.38,5.44
16.525,-3.72,-2.72,4.39,6.36
16.535,-2.80,-4.42,4.93,7.19
16.545,-1.93,-4.24,4.48,6.46
16.555,-1.23,-3.14,3.34,4.74
16.565,-0.62,-2.42,1.82,3.09
16.575,-0.19,-2.03,0.44,2.08
16.585,0.30,-1.99,-0.81,2.17
16.595,-0.02,-1.89,-1.36,2.32
16.605,-1.53,-0.96,-1.41,2.29
16.615,-3.38,0.09,-1.16,3.57
16.625,-4.48,0.41,-0.62,4.54
16.635,-4.51,0.21,-0.16,4.52
16.645,-3.68,-0.25,-0.04,3.69
16.655,-2.77,-0.81,0.52,2.93
16.665,-2.24,-1.42,1.02,2.84
16.675,-2.28,-2.41,1.16,3.52
16.685,-2.28,-3.63,0.79,4.35
16.695,-1.90,-4.74,0.04,5.11
16.705,-1.69,-5.21,-0.54,5.50
16.715,-1.51,-4.76,-1.03,5.10
16.725,-1.28,-3.64,-1.24,4.05
16.735,-1.11,-2.02,-1.12,2.57
16.745,-1.10,-0.22,-0.68,1.31
16.755,-1.21,1.10,-0.20,1.65
16.765,-1.11,1.94,0.20,2.24
16.775,-0.88,2.20,0.50,2.42
16.785,-1.08,2.13,0.55,2.45
16.795,-1.31,2.25,0.06,2.60
16.805,-1.07,2.28,-0.54,2.58
16.815,-0.67,1.63,-1.06,2.05
16.825,-0.75,0.29,-1.61,1.80
16.835,-0.93,-0.80,-2.13,2.46
16.845,-0.78,-1.36,-2.58,3.02
16.855,-0.25,-1.62,-3.06,3.47
16.864,0.27,-1.66,-3.52,3.90
16.875,0.75,-1.66,-3.75,4.17
16.885,1.17,-1.80,-3.66,4.24
16.895,1.31,-1.69,-3.49,4.09
16.905,1.52,-1.20,-3.49,3.99
16.915,2.18,-0.46,-3.49,4.14
16.925,3.15,0.14,-3.28,4.55
16.935,3.79,0.59,-2.96,4.84
16.944,4.02,0.99,-2.95,5.09
16.955,4.06,1.08,-3.15,5.25
16.964,3.68,1.36,-2.99,4.93
16.974,2.92,1.60,-2.24,4.01
16.984,2.61,0.94,-1.80,3.30
16.995,2.97,-0.15,-1.99,3.58
17.004,3.84,-0.63,-2.21,4.47
17.015,4.26,-0.26,-1.56,4.55
17.025,3.72,0.45,-0.76,3.82
17.035,3.17,0.84,-1.08,3.45
17.044,1.99,0.77,-1.50,2.61
17.054,0.29,0.58,-1.05,1.23
17.064,-1.09,0.49,-0.09,1.20
17.075,-2.36,0.46,0.69,2.50
17.084,-3.47,0.43,1.28,3.72
17.094,-4.85,0.21,2.31,5.38
17.104,-5.92,0.22,3.29,6.78
17.114,-6.80,1.46,3.78,7.91
17.124,-7.37,3.63,3.68,9.00
17.134,-6.48,6.58,3.32,9.81
17.144,-4.25,8.51,3.32,10.08
17.154,-1.74,8.95,3.45,9.75
17.164,0.67,8.79,3.61,9.52
17.174,2.67,7.89,4.07,9.27
17.184,3.99,6.20,4.35,8.56
17.194,4.80,4.14,4.13,7.56
17.204,4.99,1.50,3.50,6.28
17.214,4.72,-2.82,2.22,5.93
17.224,3.83,-6.25,1.37,7.45
17.234,3.09,-5.37,0.03,6.19
17.244,2.73,-6.52,-1.71,7.28
17.254,2.19,-7.27,-1.61,7.76
17.264,1.45,-7.27,-1.63,7.59
17.274,0.59,-6.85,-1.51,7.04
17.284,-0.27,-6.70,-1.04,6.79
17.294,-1.06,-6.98,-0.52,7.08
17.304,-1.58,-6.82,0.07,7.00
17.314,-1.72,-6.08,0.74,6.36
17.324,-1.84,-5.28,1.24,5.73
17.334,-1.88,-4.30,1.63,4.97
17.344,-1.90,-3.20,1.81,4.14
17.354,-1.88,-2.10,1.76,3.32
17.364,-1.81,-0.88,1.50,2.51
17.374,-1.64,0.33,1.23,2.07
17.384,-1.13,1.01,1.14,1.90
17.394,-0.33,0.78,1.33,1.58
17.404,0.42,-0.02,1.44,1.50
17.414,0.95,-0.51,1.07,1.52
17.423,1.17,-0.14,0.57,1.31
17.434,1.54,0.97,0.03,1.82
17.444,2.53,2.16,-0.24,3.34
17.454,4.02,3.83,-0.75,5.60
17.464,5.25,5.14,-2.28,7.70
17.474,5.71,5.66,-4.05,9.00
17.483,4.45,4.87,-5.01,8.29
17.494,2.37,3.27,-5.23,6.61
17.503,1.02,1.66,-5.01,5.38
17.514,1.00,-0.06,-4.36,4.48
17.523,1.58,-0.64,-3.03,3.48
17.534,1.65,-0.43,-1.84,2.51
17.544,1.32,0.74,-0.60,1.63
17.554,0.97,3.89,0.41,4.03
17.563,0.65,9.37,1.55,9.52
17.574,0.78,14.69,1.01,14.75
17.585,0.61,15.35,0.34,15.37
17.594,-1.87,11.47,2.18,11.82
17.603,-3.94,5.54,3.28,7.55
17.614,-4.03,0.44,4.17,5.81
17.623,-2.65,-2.89,5.24,6.54
17.634,-1.63,-3.73,5.49,6.84
17.643,-1.10,-2.69,4.65,5.49
17.653,-0.53,-1.91,3.00,3.60
17.663,-0.20,-1.89,1.48,2.41
17.673,-0.33,-1.83,0.21,1.87
17.683,-1.56,-1.43,-0.65,2.22
17.694,-3.99,-0.83,-1.23,4.26
17.703,-6.04,-0.29,-1.42,6.21
17.713,-6.54,-0.30,-0.72,6.58
17.723,-5.85,-0.78,0.25,5.90
17.734,-4.62,-1.23,0.52,4.81
17.743,-3.36,-1.77,0.92,3.91
17.753,-2.39,-2.11,1.74,3.63
17.763,-2.24,-2.38,1.75,3.71
17.773,-2.24,-3.34,1.05,4.16
17.783,-2.19,-4.53,-0.05,5.03
17.793,-2.18,-5.18,-0.90,5.69
17.803,-2.26,-4.93,-1.47,5.61
17.813,-2.27,-3.60,-1.73,4.60
17.823,-2.30,-1.83,-1.52,3.31
17.833,-2.32,-0.25,-0.98,2.54
17.843,-2.25,1.05,-0.43,2.52
17.853,-2.07,1.88,0.08,2.80
17.863,-1.51,2.12,0.27,2.62
17.873,-1.17,1.98,0.29,2.31
17.883,-1.03,1.74,-0.09,2.03
17.893,-0.62,1.36,-0.69,1.65
17.903,-0.18,0.34,-1.26,1.32
17.913,0.14,-1.02,-1.92,2.18
17.923,0.38,-2.05,-2.55,3.29
17.933,0.59,-2.44,-3.14,4.02
17.943,1.04,-2.37,-3.79,4.59
17.953,1.53,-2.06,-4.30,5.01
17.963,1.88,-1.67,-4.22,4.91
17.973,2.25,-1.31,-3.68,4.50
17.983,2.75,-0.96,-3.14,4.28
17.993,3.36,-0.40,-2.46,4.19
18.003,4.02,0.33,-2.03,4.51
18.013,4.33,0.89,-1.95,4.83
18.023,4.23,1.46,-1.77,4.81
18.033,4.08,1.70,-1.76,4.76
18.043,3.97,1.46,-2.24,4.79
18.053,3.79,1.33,-2.95,4.98
18.063,3.46,1.34,-3.40,5.03
18.073,3.12,1.42,-3.49,4.89
18.083,3.10,0.87,-3.88,5.04
18.093,2.79,-0.19,-4.61,5.40
18.103,2.47,-0.67,-4.20,4.92
18.113,2.74,-0.33,-2.56,3.77
18.123,2.58,-0.05,-1.16,2.83
18.133,2.14,-0.16,-0.79,2.28
18.143,1.35,-0.47,-0.73,1.60
18.153,0.22,-0.56,-0.05,0.61
18.163,-0.66,-0.17,0.86,1.09
18.173,-1.78,0.35,1.36,2.26
18.182,-3.15,0.60,2.05,3.80
18.193,-4.69,0.62,3.07,5.64
18.203,-5.73,1.32,3.97,7.09
18.213,-6.03,3.01,4.78,8.26
18.222,-5.40,5.69,4.88,9.24
18.233,-3.66,8.18,3.93,9.78
18.242,-1.79,9.30,2.80,9.87
18.253,-0.13,9.37,2.54,9.71
18.262,1.58,8.55,2.99,9.19
18.272,2.79,7.24,3.77,8.63
18.282,3.55,5.43,4.19,7.72
18.293,3.78,2.78,3.60,5.91
18.302,3.67,-0.39,2.49,4.45
18.312,3.14,-4.97,0.67,5.92
18.322,2.11,-7.27,0.31,7.57
18.332,1.67,-6.41,-0.83,6.68
18.342,1.75,-7.66,-1.67,8.03
18.352,1.66,-7.64,-0.88,7.87
18.362,1.08,-7.50,-0.91,7.64
18.372,0.29,-7.29,-0.94,7.36
18.383,-0.28,-6.69,-0.57,6.72
18.392,-0.69,-6.59,-0.10,6.62
18.402,-0.94,-6.25,0.59,6.35
18.412,-0.99,-5.42,1.06,5.61
18.422,-0.95,-4.48,1.37,4.78
18.432,-1.09,-3.62,1.47,4.06
18.442,-1.34,-2.83,1.29,3.39
18.452,-1.58,-2.24,0.97,2.90
18.462,-1.87,-1.65,0.56,2.56
18.472,-1.94,-1.01,0.33,2.21
18.482,-1.70,-0.67,0.42,1.87
18.492,-1.30,-0.65,0.68,1.60
18.502,-0.80,-0.41,0.82,1.22
18.512,-0.24,0.08,0.77,0.81
18.522,0.36,0.99,0.69,1.26
18.532,1.16,2.53,0.47,2.83
18.542,2.44,4.68,0.17,5.28
18.552,4.33,6.56,-1.13,7.95
18.562,5.79,7.13,-3.24,9.73
18.572,5.20,6.09,-4.76,9.32
18.582,3.11,4.08,-5.41,7.46
18.592,1.21,2.34,-5.35,5.96
18.602,0.47,0.18,-5.16,5.19
18.612,0.89,-1.54,-4.41,4.76
18.622,1.50,-1.80,-3.43,4.16
18.632,1.60,-1.48,-2.43,3.27
18.642,1.67,-1.10,-1.16,2.32
18.652,1.77,-0.01,0.34,1.80
18.662,1.26,5.22,1.89,5.69
18.672,0.72,11.86,1.29,11.95
18.682,0.40,15.50,-0.68,15.52
18.693,-2.09,14.85,1.32,15.05
18.702,-4.51,9.90,3.94,11.57
18.712,-4.75,5.03,5.74,8.99
18.722,-3.56,1.32,6.93,7.90
18.732,-2.52,-0.49,6.43,6.93
18.742,-1.77,-0.89,4.77,5.16
18.752,-1.07,-1.54,3.07,3.60
18.762,-1.03,-2.06,1.66,2.84
18.772,-2.06,-2.18,0.24,3.01
18.782,-3.93,-1.88,-0.93,4.45
18.792,-5.61,-1.55,-1.68,6.06
18.801,-5.94,-1.63,-1.67,6.38
18.812,-5.09,-2.53,-0.86,5.75
18.821,-3.94,-3.26,-0.45,5.13
18.832,-2.79,-3.18,-0.18,4.24
18.842,-2.04,-2.91,0.21,3.57
18.852,-1.90,-2.48,0.79,3.22
18.862,-2.11,-2.18,0.92,3.17
18.872,-2.24,-2.67,0.53,3.52
18.881,-2.52,-3.56,-0.25,4.37
18.892,-2.90,-4.23,-0.82,5.19
18.902,-3.02,-4.06,-1.15,5.19
18.912,-2.89,-3.11,-1.17,4.41
18.922,-2.66,-1.74,-0.74,3.27
18.932,-2.47,-0.21,-0.20,2.49
18.941,-2.22,1.10,0.44,2.52
18.952,-1.69,1.94,0.83,2.70
18.962,-1.02,2.00,0.67,2.35
18.972,-0.70,1.77,-0.04,1.91
18.982,-0.30,1.55,-1.10,1.93
18.991,0.12,1.03,-1.87,2.14
19.002,0.10,0.03,-2.46,2.46
19.012,-0.01,-0.81,-2.84,2.95
19.021,0.08,-1.16,-3.10,3.31
19.031,0.36,-0.81,-3.46,3.57
19.041,0.87,-0.22,-3.75,3.86
19.051,1.63,0.23,-3.68,4.03
19.061,2.63,0.18,-3.54,4.42
19.071,3.32,-0.22,-3.44,4.78
19.081,3.52,-0.42,-3.04,4.67
19.091,3.81,-0.35,-2.74,4.71
19.101,4.49,-0.40,-2.52,5.17
19.111,4.48,-0.39,-2.47,5.13
19.121,3.92,-0.20,-2.53,4.67
19.131,3.42,-0.10,-2.99,4.54
19.141,3.09,0.29,-3.45,4.64
19.151,2.59,0.94,-3.29,4.29
19.161,2.30,1.18,-3.13,4.06
19.171,2.21,0.58,-3.51,4.18
19.181,2.09,-0.12,-3.69,4.24
19.191,2.28,-0.40,-2.78,3.61
19.201,2.34,-0.60,-1.52,2.85
19.211,1.87,-1.24,-0.95,2.44
19.221,1.02,-1.95,-0.79,2.34
19.231,-0.16,-2.27,-0.18,2.29
19.241,-1.02,-1.85,0.94,2.31
19.251,-1.67,-0.87,1.72,2.55
19.261,-2.56,-0.17,2.17,3.36
19.271,-3.87,0.29,3.00,4.90
19.281,-5.25,0.98,3.74,6.52
19.291,-6.17,2.73,4.58,8.15
19.301,-6.28,6.44,4.94,10.26
19.311,-4.75,10.24,3.90,11.94
19.321,-2.39,12.01,2.69,12.53
19.331,-0.20,12.08,2.43,12.32
19.341,1.82,10.85,3.06,11.42
19.351,3.36,8.64,3.91,10.06
19.361,4.35,6.01,4.42,8.64
19.371,4.92,3.19,4.07,7.13
19.381,4.88,0.02,3.24,5.86
19.391,4.46,-3.88,1.84,6.20
19.401,3.46,-7.17,0.69,7.99
19.411,2.46,-6.05,-0.17,6.54
19.421,2.35,-6.93,-1.60,7.49
19.431,2.16,-7.35,-1.26,7.76
19.441,1.55,-7.32,-1.34,7.60
19.451,0.65,-6.82,-1.11,6.94
19.461,-0.18,-6.41,-0.89,6.48
19.471,-0.98,-6.43,-0.53,6.53
19.481,-1.61,-6.04,0.23,6.26
19.491,-2.00,-5.30,0.71,5.71
19.501,-2.18,-4.39,1.05,5.01
19.511,-2.09,-3.59,1.23,4.34
19.520,-1.93,-2.98,1.19,3.75
19.531,-1.68,-2.53,1.01,3.20
19.540,-1.51,-2.31,0.72,2.85
19.551,-1.42,-2.10,0.52,2.59
19.560,-1.18,-1.88,0.66,2.31
19.571,-0.69,-1.79,1.03,2.17
19.580,-0.14,-1.85,1.19,2.20
19.591,0.22,-1.25,1.08,1.67
19.600,0.40,1.06,1.10,1.58
19.611,0.87,2.88,0.79,3.12
19.620,1.79,4.78,-0.05,5.11
19.630,3.50,7.31,-1.54,8.25
19.640,5.30,8.28,-3.74,10.52
19.651,5.74,6.36,-5.18,10.02
19.660,3.86,4.02,-5.61,7.91
19.670,1.87,2.18,-5.42,6.13
19.680,1.00,0.03,-5.13,5.23
19.690,1.48,-1.83,-4.26,4.87
19.700,2.22,-2.03,-2.85,4.15
19.711,2.14,-1.70,-1.58,3.16
19.720,1.71,-0.87,0.01,1.92
19.730,1.17,0.87,1.37,2.00
19.740,0.55,5.44,2.50,6.01
19.750,0.04,11.59,1.88,11.75
19.760,-0.51,15.65,-0.32,15.66
19.771,-3.07,14.57,0.69,14.91
19.780,-4.58,9.07,2.73,10.53
19.790,-4.42,3.10,4.41,6.98
19.800,-3.34,-1.10,5.58,6.60
19.810,-2.30,-2.56,5.55,6.53
19.820,-1.25,-2.13,4.37,5.02
19.830,-0.13,-1.54,2.51,2.94
19.840,0.56,-1.36,0.94,1.75
19.850,0.22,-1.17,-0.23,1.22
19.860,-1.49,-0.93,-0.85,1.95
19.870,-3.85,-0.33,-1.30,4.08
19.880,-5.31,0.22,-1.49,5.52
19.890,-5.28,-0.54,-0.77,5.36
19.900,-4.77,-1.47,-0.17,4.99
19.910,-4.02,-1.83,0.18,4.42
19.920,-3.26,-2.03,0.86,3.94
19.930,-2.81,-2.13,1.30,3.76
19.940,-2.79,-2.64,1.25,4.04
19.950,-2.76,-3.51,0.50,4.50
19.960,-2.78,-4.33,-0.41,5.16
19.970,-2.86,-4.79,-1.02,5.67
19.980,-2.83,-4.20,-1.53,5.29
19.990,-2.60,-2.92,-1.54,4.20
20.000,-2.34,-1.18,-1.04,2.81
20.010,-2.23,0.52,-0.17,2.29
20.020,-2.20,1.84,0.65,2.95
20.030,-1.84,2.41,0.91,3.16
20.040,-1.57,1.74,0.76,2.46
20.050,-1.45,1.12,-0.13,1.84
20.060,-1.02,0.81,-0.89,1.58
20.070,-0.99,0.19,-1.26,1.62
20.079,-1.26,-0.56,-1.64,2.14
20.090,-1.34,-1.03,-2.03,2.65
20.100,-0.83,-1.17,-2.67,3.03
20.110,-0.26,-1.02,-3.44,3.59
20.120,0.32,-0.64,-4.07,4.13
20.130,1.29,-0.44,-4.24,4.45
20.140,2.21,-0.69,-4.12,4.73
20.150,2.81,-1.11,-3.91,4.94
20.160,3.20,-1.32,-3.58,4.98
20.170,3.79,-1.15,-3.13,5.04
20.180,4.75,-0.67,-2.65,5.49
20.190,5.01,0.03,-2.22,5.48
20.200,4.56,0.82,-2.20,5.13
20.210,4.10,1.11,-2.62,4.99
20.220,3.73,1.33,-3.24,5.11
20.230,2.99,1.65,-3.31,4.76
20.240,2.36,1.65,-2.85,4.05
20.250,2.37,0.78,-2.92,3.84
20.260,2.53,-0.29,-3.40,4.25
20.270,2.71,-0.63,-3.09,4.16
20.279,2.91,-0.44,-2.06,3.59
20.289,2.53,-0.81,-1.30,2.96
20.299,1.71,-1.60,-0.87,2.50
20.310,0.69,-2.28,-0.60,2.46
20.319,-0.37,-2.48,-0.03,2.51
20.329,-1.28,-2.04,0.87,2.56
20.339,-1.95,-1.28,1.81,2.95
20.349,-2.66,-0.57,2.76,3.87
20.359,-4.09,0.06,3.94,5.68
20.369,-5.65,1.16,4.18,7.12
20.379,-7.22,4.19,3.78,9.16
20.389,-7.70,8.38,3.35,11.86
20.399,-5.67,10.75,3.07,12.54
20.410,-2.76,11.53,2.89,12.20
20.419,0.08,11.20,3.02,11.60
20.430,2.39,9.68,3.77,10.66
20.439,3.79,7.66,4.54,9.68
20.449,4.62,5.49,4.84,8.66
20.459,5.26,2.94,4.52,7.53
20.469,5.36,-0.05,3.97,6.66
20.479,4.91,-4.66,2.13,7.10
20.489,3.42,-6.26,1.29,7.25
20.499,2.33,-5.24,-0.96,5.81
20.509,1.85,-6.38,-2.13,6.98
20.519,1.52,-6.79,-1.70,7.16
20.529,0.99,-7.12,-1.70,7.38
20.539,-0.03,-6.78,-1.39,6.92
20.549,-1.10,-6.79,-1.22,6.99
20.559,-1.75,-7.01,-0.49,7.24
20.569,-1.93,-6.85,0.43,7.13
20.579,-1.99,-6.37,1.09,6.76
20.589,-1.96,-5.57,1.64,6.13
20.599,-1.86,-4.31,1.88,5.06
20.609,-1.69,-3.14,1.77,3.98
20.619,-1.76,-1.89,1.21,2.85
20.629,-1.89,-0.56,0.51,2.04
20.639,-1.65,0.67,0.28,1.80
20.649,-1.26,1.12,0.53,1.77
20.659,-1.01,0.85,0.73,1.51
20.669,-0.84,0.26,0.56,1.04
20.679,-0.41,0.21,0.50,0.68
20.689,0.25,1.04,0.23,1.09
20.699,1.38,2.14,-0.05,2.54
20.709,3.37,3.80,-0.42,5.10
20.719,5.51,5.44,-1.91,7.98
20.729,6.56,6.66,-3.86,10.11
20.739,6.04,5.82,-4.42,9.48
20.749,4.02,4.05,-4.21,7.09
20.759,2.37,2.37,-3.64,4.95
20.769,1.78,-0.38,-3.43,3.88
20.779,1.90,-1.87,-3.01,4.02
20.789,1.99,-1.76,-2.33,3.53
20.799,1.74,-1.02,-1.27,2.39
20.809,1.45,0.81,0.20,1.67
20.819,1.04,4.55,1.75,4.99
20.829,0.91,8.86,2.05,9.14
20.839,0.84,11.77,0.74,11.82
20.850,-1.31,12.75,0.44,12.82
20.859,-3.23,10.47,1.72,11.10
20.869,-4.64,5.95,2.99,8.12
20.878,-4.16,1.79,4.44,6.34
20.889,-2.39,-1.80,5.53,6.29
20.899,-1.31,-3.33,5.29,6.39
20.908,-0.84,-2.88,3.72,4.78
20.918,-0.57,-1.79,1.88,2.66
20.929,-0.13,-0.98,0.08,0.99
20.938,-0.28,-1.12,-0.99,1.52
20.949,-2.05,-0.91,-1.15,2.52
20.958,-4.59,-0.17,-1.31,4.78
20.968,-6.31,-0.20,-1.29,6.44
20.978,-6.70,-0.88,-0.51,6.78
20.988,-5.63,-1.70,0.14,5.89
20.998,-4.35,-2.12,0.71,4.89
21.008,-3.22,-2.35,1.36,4.21
21.018,-2.62,-2.47,1.46,3.89
21.028,-2.54,-3.08,1.07,4.14
21.038,-2.31,-4.09,0.19,4.70
21.048,-2.35,-4.94,-0.67,5.51
21.058,-2.33,-5.10,-1.27,5.74
21.069,-2.22,-4.43,-1.55,5.19
21.078,-2.31,-3.28,-1.44,4.26
21.088,-2.17,-1.36,-1.02,2.76
21.098,-1.89,0.90,-0.34,2.12
21.108,-1.66,2.87,0.40,3.34
21.118,-1.46,3.94,0.90,4.30
21.128,-1.35,4.09,0.91,4.40
21.138,-1.43,3.81,0.41,4.09
21.148,-1.40,3.17,-0.39,3.49
21.158,-1.22,2.04,-0.99,2.57
21.168,-1.30,0.45,-1.50,2.04
21.178,-1.35,-0.84,-2.07,2.61
21.188,-1.11,-1.51,-2.72,3.30
21.198,-0.70,-1.68,-3.63,4.07
21.208,-0.02,-1.56,-4.45,4.72
21.218,0.83,-1.50,-4.50,4.81
21.228,1.75,-1.73,-4.18,4.85
21.238,2.56,-2.01,-3.75,4.97
21.248,3.03,-1.99,-2.87,4.62
21.258,3.53,-1.57,-2.06,4.38
21.268,3.69,-0.62,-1.34,3.97
21.278,3.48,0.56,-1.10,3.69
21.288,3.23,1.45,-1.63,3.90
21.298,2.95,1.78,-2.54,4.29
21.308,2.48,1.96,-3.27,4.55
21.318,1.88,2.26,-3.63,4.67
21.328,1.32,2.24,-3.37,4.26
21.338,1.03,1.77,-3.27,3.85
21.348,1.14,0.90,-3.45,3.74
21.358,1.32,0.23,-3.30,3.56
21.368,1.65,0.21,-2.61,3.09
21.378,1.90,0.46,-1.61,2.53
21.388,1.80,0.08,-0.96,2.04
21.398,1.13,-0.62,-0.81,1.52
21.408,0.24,-1.37,-0.84,1.62
21.418,-0.42,-2.17,-0.52,2.27
21.428,-0.97,-2.64,0.25,2.83
21.438,-1.74,-2.81,1.18,3.51
21.448,-2.44,-2.82,2.03,4.24
21.458,-3.09,-2.84,3.19,5.27
21.468,-3.76,-2.51,4.48,6.36
21.478,-4.06,-1.05,5.20,6.68
21.488,-4.48,1.49,4.78,6.72
21.498,-4.58,5.06,3.38,7.62
21.508,-3.30,8.38,2.56,9.36
21.518,-1.02,9.74,2.51,10.11
21.528,1.50,10.11,2.44,10.51
21.538,3.58,9.54,3.04,10.63
21.548,4.89,8.09,3.71,10.16
21.558,5.41,5.80,3.48,8.66
21.568,5.18,2.98,2.94,6.66
21.578,4.41,-0.11,2.34,4.99
21.588,3.50,-3.55,1.08,5.10
21.597,2.23,-6.20,-0.49,6.60
21.608,1.31,-4.98,-1.25,5.30
21.617,1.37,-5.31,-1.92,5.81
21.627,1.54,-5.34,-1.14,5.68
21.637,1.49,-5.01,-0.91,5.31
21.647,0.88,-4.44,-0.61,4.57
21.657,0.22,-3.86,-0.50,3.90
21.667,-0.36,-3.76,-0.41,3.80
21.677,-0.90,-3.51,-0.01,3.63
21.688,-1.22,-2.91,0.40,3.18
21.697,-1.38,-2.13,0.76,2.65
21.707,-1.43,-1.45,0.94,2.24
21.717,-1.47,-1.13,0.91,2.07
21.727,-1.52,-1.21,0.75,2.08
21.737,-1.53,-1.50,0.68,2.25
21.747,-1.33,-1.88,0.69,2.41
21.757,-0.92,-2.31,0.75,2.60
21.767,-0.46,-2.86,0.73,2.98
21.777,-0.11,-3.08,0.61,3.14
21.787,0.21,-2.76,0.63,2.84
21.797,0.56,-1.88,0.78,2.11
21.807,1.08,-0.31,0.95,1.47
21.817,1.74,1.60,0.73,2.47
21.827,2.44,3.64,-0.40,4.39
21.838,3.26,5.38,-1.80,6.54
21.847,3.67,5.42,-3.20,7.29
21.857,2.97,4.03,-4.22,6.55
21.867,1.34,2.45,-4.85,5.59
21.877,-0.01,0.97,-5.07,5.16
21.887,0.01,-0.46,-4.62,4.65
21.897,0.93,-1.52,-3.72,4.12
21.907,1.66,-1.97,-2.52,3.61
21.917,1.90,-1.65,-0.96,2.69
21.927,1.74,-0.58,0.58,1.92
21.937,1.41,1.71,1.70,2.79
21.947,1.01,6.38,1.89,6.73
21.957,0.85,12.64,0.68,12.69
21.967,0.11,16.89,-1.26,16.93
21.978,-1.93,15.00,-0.03,15.12
21.987,-3.08,8.46,2.75,9.41
21.997,-3.66,1.92,4.19,5.89
22.007,-3.43,-2.32,5.02,6.50
22.017,-2.57,-4.20,5.01,7.03
22.027,-1.62,-4.38,4.22,6.29
22.037,-0.83,-3.67,2.94,4.78
22.047,-0.69,-3.07,1.61,3.53
22.057,-0.78,-2.87,0.39,3.00
22.067,-1.43,-2.14,-0.00,2.57
22.077,-2.90,-0.66,-0.24,2.99
22.087,-4.51,0.89,-0.87,4.68
22.097,-5.46,1.67,-1.04,5.81
22.107,-6.12,1.47,-0.32,6.30
22.117,-5.88,1.16,0.46,6.01
22.127,-5.40,0.93,1.29,5.63
22.137,-4.60,-0.04,1.99,5.01
22.147,-3.53,-1.43,2.10,4.35
22.157,-2.92,-3.00,1.10,4.33
22.167,-2.65,-4.11,-0.06,4.89
22.177,-2.41,-4.57,-1.08,5.28
22.187,-2.17,-4.31,-1.63,5.10
22.197,-1.94,-3.63,-1.52,4.39
22.207,-1.84,-2.27,-1.03,3.10
22.217,-1.82,-0.45,-0.35,1.91
22.227,-1.76,1.32,0.52,2.26
22.237,-1.64,2.69,1.38,3.44
22.247,-1.50,3.37,1.67,4.04
22.256,-1.70,3.24,1.21,3.85
22.267,-1.92,2.70,0.34,3.33
22.277,-1.92,1.71,-0.37,2.60
22.287,-1.81,0.25,-0.98,2.07
22.297,-1.72,-0.96,-1.50,2.48
22.307,-1.38,-1.51,-1.91,2.80
22.316,-0.79,-1.53,-2.39,2.94
22.327,-0.13,-1.29,-2.83,3.11
22.336,0.46,-0.92,-2.98,3.15
22.346,0.92,-0.82,-2.85,3.11
22.356,1.29,-0.97,-2.66,3.11
22.366,1.61,-1.24,-2.36,3.12
22.376,1.59,-1.34,-2.09,2.95
22.386,1.63,-1.10,-1.98,2.79
22.396,1.88,-0.70,-2.05,2.87
22.406,2.09,-0.07,-1.89,2.82
22.416,2.60,0.47,-1.66,3.12
22.427,3.03,0.78,-1.40,3.43
22.436,3.21,0.73,-1.48,3.61
22.446,3.01,0.67,-2.04,3.70
22.456,2.63,0.66,-2.72,3.84
22.466,2.24,0.51,-3.27,4.00
22.476,1.84,0.68,-3.39,3.92
22.486,1.46,0.91,-3.15,3.59
22.496,1.20,0.84,-3.12,3.45
22.506,1.06,0.36,-3.12,3.31
22.516,1.06,0.11,-2.97,3.15
22.526,1.48,0.25,-2.39,2.82
22.536,1.77,0.35,-1.50,2.35
22.546,1.69,0.02,-0.85,1.89
22.556,1.20,-0.38,-0.31,1.29
22.566,0.33,-0.72,-0.03,0.79
22.576,-0.58,-1.25,0.17,1.39
22.586,-1.54,-1.78,0.60,2.43
22.596,-2.55,-2.27,1.25,3.63
22.606,-3.25,-2.62,1.83,4.56
22.616,-3.72,-2.72,2.39,5.19
22.626,-4.09,-2.64,3.15,5.80
22.636,-4.17,-2.27,4.05,6.24
22.646,-3.87,-1.36,4.93,6.41
22.656,-3.52,0.32,5.09,6.20
22.666,-3.06,2.45,4.09,5.67
22.676,-1.92,5.15,2.47,6.02
22.686,-0.31,7.66,2.03,7.93
22.696,1.74,9.27,2.20,9.69
22.706,3.64,9.45,2.57,10.44
22.716,4.96,7.91,3.27,9.89
22.726,5.55,5.34,3.41,8.42
22.736,5.45,2.53,3.10,6.76
22.746,4.43,-0.28,2.60,5.14
22.756,3.21,-2.11,1.80,4.25
22.766,2.45,-3.19,0.67,4.08
22.776,2.18,-3.90,-0.53,4.50
22.786,2.20,-3.05,-0.73,3.83
22.796,2.35,-2.38,-0.78,3.44
22.806,2.20,-2.24,-0.54,3.19
22.816,1.85,-1.71,-0.07,2.51
22.826,1.37,-1.40,0.06,1.96
22.836,0.92,-1.30,0.10,1.60
22.846,0.55,-1.18,0.19,1.31
22.856,0.21,-0.67,0.35,0.78
22.866,-0.13,0.08,0.45,0.48
22.876,-0.47,0.41,0.45,0.77
22.886,-0.82,0.16,0.41,0.93
22.896,-1.11,-0.60,0.32,1.31
22.906,-1.24,-1.43,0.30,1.92
22.916,-1.21,-2.04,0.24,2.38
22.926,-1.01,-2.45,0.10,2.65
22.935,-0.68,-2.75,-0.02,2.83
22.946,-0.31,-2.86,-0.12,2.88
22.955,0.00,-2.68,-0.17,2.69
22.966,0.38,-2.37,-0.11,2.40
22.975,0.82,-2.03,-0.07,2.19
22.986,1.25,-1.45,-0.20,1.92
22.995,1.70,-0.64,-0.48,1.88
23.005,2.10,0.14,-0.77,2.24
23.015,2.33,0.98,-1.01,2.72
23.026,2.32,1.46,-1.23,3.01
23.035,2.08,1.47,-1.43,2.92
23.046,1.70,1.13,-1.48,2.52
23.055,1.28,0.75,-1.38,2.02
23.065,0.91,0.37,-1.26,1.59
23.075,0.71,-0.00,-1.19,1.39
23.086,0.68,-0.27,-1.05,1.29
23.095,0.79,-0.58,-0.91,1.34
23.105,0.99,-0.91,-0.76,1.54
23.115,1.21,-1.25,-0.58,1.83
23.125,1.51,-1.55,-0.33,2.19
23.135,1.88,-1.63,0.01,2.49
23.145,2.09,-1.29,0.47,2.50
23.155,2.06,-0.49,1.08,2.38
23.165,1.93,1.20,1.58,2.77
23.175,1.39,4.67,1.40,5.07
23.185,-0.36,10.53,-0.14,10.54
23.195,-2.72,15.26,-1.68,15.59
23.206,-4.24,15.28,-1.43,15.93
23.216,-4.60,11.20,0.15,12.11
23.225,-4.69,4.27,1.54,6.53
23.235,-4.40,-1.38,2.36,5.18
23.245,-3.41,-4.61,2.52,6.27
23.255,-2.41,-5.81,2.21,6.67
23.265,-1.45,-5.83,1.54,6.21
23.275,-0.67,-5.38,0.83,5.49
23.285,-0.26,-4.64,0.12,4.65
23.295,-0.13,-3.75,-0.64,3.80
23.305,-0.19,-2.74,-1.22,3.01
23.315,-0.51,-1.98,-1.47,2.51
23.325,-0.99,-1.48,-1.41,2.27
23.335,-1.64,-1.00,-1.13,2.22
23.345,-2.53,-0.53,-0.93,2.74
23.355,-3.59,0.06,-0.92,3.71
23.365,-4.91,0.95,-1.08,5.12
23.375,-5.98,1.82,-1.43,6.41
23.385,-6.43,2.19,-1.68,7.00
23.395,-5.89,1.98,-1.18,6.32
23.405,-4.66,1.27,-0.20,4.84
23.415,-3.65,0.58,0.39,3.72
23.425,-2.84,0.10,0.53,2.89
23.435,-2.12,-0.24,0.52,2.19
23.445,-1.63,-0.49,0.52,1.77
23.455,-1.29,-0.56,0.52,1.50
23.465,-0.97,-0.52,0.50,1.21
23.475,-0.82,-0.38,0.45,1.01
23.485,-0.90,-0.23,0.24,0.96
23.494,-0.98,-0.14,-0.07,0.99
23.505,-1.05,-0.20,-0.33,1.12
23.515,-1.17,-0.39,-0.50,1.33
23.525,-1.30,-0.55,-0.58,1.53
23.535,-1.45,-0.56,-0.63,1.68
23.545,-1.58,-0.40,-0.64,1.75
23.555,-1.70,-0.15,-0.66,1.83
23.565,-1.76,0.07,-0.67,1.89
23.574,-1.68,0.23,-0.70,1.83
23.585,-1.45,0.41,-0.69,1.66
23.594,-1.14,0.57,-0.58,1.40
23.605,-0.83,0.68,-0.50,1.18
23.614,-0.66,0.73,-0.39,1.06
23.624,-0.57,0.68,-0.33,0.95
23.634,-0.51,0.52,-0.34,0.81
23.645,-0.44,0.31,-0.37,0.65
23.654,-0.36,0.13,-0.33,0.51
23.665,-0.27,0.01,-0.20,0.34
23.674,-0.18,-0.04,-0.04,0.19
23.684,-0.08,-0.00,0.13,0.15
23.694,0.01,0.08,0.21,0.23
23.704,0.03,0.20,0.24,0.31
23.714,0.09,0.31,0.25,0.41
23.724,0.13,0.36,0.20,0.43
23.734,0.11,0.32,0.12,0.36
23.744,0.03,0.25,0.05,0.26
23.754,-0.09,0.22,-0.01,0.24
23.764,-0.22,0.21,-0.09,0.32
23.774,-0.33,0.20,-0.24,0.46
23.784,-0.41,0.17,-0.32,0.55
23.794,-0.48,0.07,-0.33,0.58
23.804,-0.53,-0.10,-0.31,0.63
23.814,-0.55,-0.26,-0.32,0.69
23.824,-0.51,-0.35,-0.32,0.69
23.834,-0.40,-0.26,-0.30,0.57
23.844,-0.25,-0.04,-0.26,0.36
23.854,-0.05,0.23,-0.19,0.31
23.864,0.07,0.45,-0.11,0.47
23.874,0.07,0.60,-0.05,0.61
23.884,-0.06,0.66,-0.06,0.67
23.894,-0.29,0.64,-0.06,0.71
23.904,-0.54,0.56,-0.08,0.78
23.914,-0.71,0.38,-0.15,0.82
23.924,-0.82,0.21,-0.20,0.87
23.934,-0.90,0.01,-0.26,0.93
23.944,-0.93,-0.16,-0.29,0.99
23.954,-0.93,-0.25,-0.29,1.01
23.964,-0.88,-0.26,-0.29,0.96
23.974,-0.80,-0.24,-0.30,0.89
23.984,-0.70,-0.23,-0.30,0.80
23.994,-0.59,-0.20,-0.31,0.69
24.004,-0.50,-0.12,-0.31,0.60
24.014,-0.41,0.04,-0.29,0.50
24.024,-0.30,0.27,-0.29,0.50
24.034,-0.18,0.49,-0.30,0.60
24.044,-0.02,0.64,-0.33,0.72
24.054,0.13,0.68,-0.38,0.79
24.064,0.24,0.66,-0.40,0.81
24.074,0.31,0.60,-0.41,0.79
24.084,0.34,0.56,-0.43,0.78
24.094,0.38,0.51,-0.49,0.80
24.104,0.43,0.41,-0.59,0.84
24.114,0.45,0.29,-0.62,0.82
24.124,0.43,0.13,-0.65,0.79
24.134,0.30,-0.04,-0.67,0.73
24.144,0.16,-0.20,-0.65,0.70
24.154,0.02,-0.32,-0.60,0.68
24.164,-0.09,-0.34,-0.53,0.63
24.174,-0.19,-0.30,-0.46,0.58
24.184,-0.30,-0.26,-0.37,0.54
24.194,-0.39,-0.23,-0.25,0.51
24.203,-0.46,-0.18,-0.10,0.50
24.214,-0.48,-0.11,0.02,0.49
24.223,-0.45,0.03,0.07,0.46
24.234,-0.36,0.25,0.09,0.45
24.244,-0.32,0.46,0.13,0.58
24.253,-0.37,0.67,0.17,0.78
24.263,-0.45,0.80,0.21,0.94
24.273,-0.53,0.81,0.25,1.00
24.283,-0.65,0.71,0.27,1.00
24.293,-0.82,0.58,0.27,1.04
24.304,-1.01,0.41,0.23,1.11
24.313,-1.17,0.22,0.20,1.21
24.323,-1.36,0.04,0.20,1.38
24.333,-1.59,-0.21,0.20,1.61
24.343,-1.89,-0.46,0.28,1.97
24.353,-2.23,-0.58,0.42,2.34
24.363,-2.56,-0.64,0.58,2.70
24.373,-2.82,-0.70,0.68,2.98
24.383,-3.05,-0.64,0.80,3.22
24.393,-3.25,-0.51,0.91,3.41
24.403,-3.98,-0.07,1.12,4.14
24.413,-3.24,-0.72,0.99,3.47
24.423,-3.01,-0.42,1.00,3.20
24.433,-2.66,-0.46,1.20,2.96
24.444,-2.21,-0.28,1.20,2.53
24.453,-1.54,-0.20,1.10,1.91
24.463,-1.13,-0.15,0.76,1.37
24.473,-0.74,0.02,0.50,0.90
24.483,-0.46,0.07,0.30,0.55
24.493,-0.20,0.34,0.14,0.42
24.503,-0.42,0.64,-0.14,0.78
24.513,-0.45,0.35,-0.07,0.57
24.523,-0.24,0.45,-0.11,0.53
24.533,-0.05,0.38,-0.22,0.45
24.543,0.10,0.47,0.04,0.48
24.553,0.42,0.64,0.29,0.81
24.563,0.75,0.66,0.19,1.02
24.573,1.01,0.87,-0.12,1.33
24.583,1.34,0.56,-0.58,1.56
24.594,1.39,0.14,-0.90,1.66
24.603,1.33,-0.19,-0.96,1.65
24.613,1.26,-0.46,-0.99,1.67
24.623,1.25,-0.51,-0.94,1.65
24.633,1.35,-0.49,-0.76,1.63
24.643,1.48,-0.43,-0.59,1.65
24.653,1.54,-0.32,-0.48,1.64
24.663,1.54,-0.45,-0.46,1.68
24.673,1.40,-0.46,-0.59,1.59
24.683,1.30,-0.35,-0.75,1.54
24.693,1.58,-0.29,-0.91,1.84
24.703,1.71,0.16,-0.86,1.92
24.713,1.28,0.50,-0.66,1.53
24.723,1.40,0.30,-0.63,1.57
24.733,1.54,0.44,-0.35,1.64
24.743,1.51,0.51,-0.21,1.61
24.753,1.28,0.46,-0.18,1.38
24.763,1.11,0.38,-0.28,1.20
24.773,1.14,0.22,-0.24,1.18
24.783,1.19,0.04,-0.14,1.20
24.793,1.24,-0.16,-0.17,1.27
24.803,1.24,-0.33,-0.14,1.29
24.812,0.91,-0.51,-0.11,1.05
24.823,0.78,-0.47,0.02,0.91
24.833,1.00,-0.37,0.17,1.08
24.843,1.04,-0.27,0.04,1.07
24.852,0.95,-0.21,-0.14,0.98
24.863,0.86,-0.18,-0.31,0.93
24.873,0.73,-0.28,-0.52,0.94
24.883,0.69,-0.33,-0.61,0.98
24.892,0.75,-0.24,-0.49,0.93
24.903,0.81,-0.28,-0.49,0.98
24.912,0.88,-0.34,-0.45,1.04
24.923,0.97,-0.32,-0.23,1.04
24.932,1.04,-0.15,-0.02,1.05
24.943,1.00,0.01,0.09,1.01
24.952,0.93,0.07,0.13,0.94
24.963,0.97,0.08,0.13,0.98
24.972,1.07,0.09,0.07,1.07
24.983,1.08,0.22,-0.02,1.10
24.993,0.98,0.42,-0.15,1.07
25.002,0.77,0.43,-0.27,0.93
25.012,0.92,-0.24,-0.34,1.02
25.022,0.96,-0.49,-0.31,1.12
25.032,0.90,-0.39,-0.33,1.03
25.042,0.74,-0.32,-0.34,0.88
25.052,0.53,-0.41,-0.30,0.73
25.062,0.43,-0.50,-0.19,0.69
25.072,0.39,-0.51,-0.11,0.65
25.082,0.29,-0.44,-0.05,0.53
25.092,0.23,-0.35,-0.05,0.42
25.102,0.21,-0.22,-0.11,0.33
25.112,0.21,-0.09,-0.19,0.30
25.122,0.14,0.02,-0.19,0.23
25.132,0.06,0.12,-0.14,0.19
25.142,0.03,0.09,-0.12,0.16
25.152,0.14,-0.21,0.04,0.25
25.162,0.29,-0.33,0.05,0.44
25.172,0.11,0.25,-0.13,0.30
25.182,0.11,0.26,-0.16,0.33
25.192,0.21,0.06,-0.17,0.27
25.202,0.21,-0.00,-0.16,0.27
25.212,0.17,-0.12,-0.14,0.25
25.222,0.06,-0.12,-0.13,0.18
25.232,0.10,-0.12,-0.12,0.20
25.242,0.15,-0.07,-0.11,0.20
25.252,0.05,-0.10,-0.09,0.14
25.262,0.02,-0.18,-0.07,0.19
25.272,0.02,-0.20,-0.04,0.21
25.282,0.03,-0.21,-0.03,0.21
25.292,0.05,-0.17,-0.04,0.18
25.302,0.11,-0.10,-0.04,0.15
25.312,0.34,0.17,-0.65,0.76
25.322,0.38,-0.11,-0.51,0.65
25.332,0.40,-0.12,-1.20,1.28
25.342,0.38,-0.13,-0.19,0.44
25.352,0.24,0.10,0.22,0.34
25.362,0.18,0.29,0.68,0.76
25.372,0.32,0.26,0.74,0.85
25.382,0.42,0.24,0.46,0.67
25.392,0.39,0.23,0.23,0.51
25.402,0.32,0.23,0.03,0.40
25.412,0.27,0.19,-0.08,0.34
25.422,0.18,0.11,-0.12,0.24
25.432,0.07,-0.02,-0.08,0.11
25.442,-0.03,-0.16,-0.07,0.18
25.452,-0.07,-0.22,-0.07,0.24
25.462,-0.08,-0.28,-0.01,0.29
25.472,-0.03,-0.28,0.05,0.29
25.482,0.11,-0.17,0.03,0.21
25.492,0.13,-0.16,-0.01,0.21
25.502,0.09,-0.10,-0.01,0.13
25.512,0.02,-0.08,0.02,0.08
25.522,-0.08,-0.10,0.08,0.15
25.531,-0.12,-0.09,0.08,0.17
25.542,-0.10,-0.17,0.06,0.21
25.552,-0.01,-0.16,0.00,0.16
25.562,0.06,-0.10,-0.11,0.16
25.572,0.10,-0.06,-0.16,0.20
25.582,0.01,-0.08,-0.06,0.10
25.592,-0.07,-0.05,-0.07,0.11
25.602,-0.02,-0.09,-0.04,0.10
25.612,0.17,-0.16,-0.02,0.24
25.622,0.30,-0.28,-0.01,0.41
25.632,0.47,-0.33,0.08,0.58
25.641,0.51,-0.24,0.01,0.57
25.651,0.52,-0.22,-0.06,0.57
25.661,0.49,-0.20,-0.18,0.56
25.671,0.46,-0.11,-0.31,0.56
25.681,0.41,0.03,-0.30,0.51
25.691,0.29,0.10,-0.19,0.36
25.701,0.19,-0.04,-0.10,0.22
25.711,0.06,-0.08,0.02,0.10
25.721,-0.01,-0.09,0.10,0.14
25.731,0.12,0.14,0.09,0.20
25.741,0.17,0.39,-0.11,0.44
25.751,0.16,0.67,-0.23,0.73
25.761,0.32,0.64,-0.07,0.72
25.771,0.41,0.36,0.05,0.55
25.781,0.31,-0.00,0.20,0.36
25.791,0.08,-0.31,0.48,0.58
25.801,-0.09,-0.60,0.71,0.94
25.811,0.01,-0.76,0.83,1.13
25.821,0.11,0.11,-1.03,1.04
25.831,0.30,0.07,-1.59,1.62
25.841,0.46,0.02,-0.52,0.70
25.851,0.41,-0.50,0.21,0.68
25.861,0.05,-0.84,0.44,0.95
25.871,0.07,-0.70,0.40,0.81
25.881,0.27,-0.60,0.69,0.95
25.891,0.39,-0.19,0.87,0.97
25.901,0.46,0.38,0.67,0.90
25.911,0.50,0.96,0.33,1.13
25.921,0.28,1.31,-0.00,1.34
25.931,0.21,1.58,-0.15,1.60
25.941,0.15,1.54,0.04,1.55
25.951,0.22,1.13,0.67,1.33
25.961,0.21,0.63,0.31,0.73
25.971,-0.14,0.04,-0.32,0.35
25.981,-0.22,-0.14,-0.08,0.28
25.991,-0.19,-0.27,0.28,0.44
26.001,-0.34,-0.29,0.24,0.51
26.011,-0.26,-0.24,0.08,0.36
26.021,-0.08,-0.48,0.01,0.49
26.031,0.00,-0.57,-0.08,0.57
26.041,0.05,-0.56,-0.20,0.60
26.051,-0.01,-0.65,-0.33,0.72
26.061,-0.00,-0.63,-0.36,0.73
26.071,0.16,-0.75,-0.28,0.81
26.081,0.35,-0.78,-0.30,0.90
26.091,0.31,-0.34,-0.43,0.63
26.101,0.28,0.08,-0.53,0.61
26.111,0.34,0.60,-0.26,0.74
26.121,0.13,1.23,0.17,1.24
26.131,-0.06,1.24,0.53,1.35
26.141,-0.22,1.21,0.81,1.47
26.151,-0.38,0.98,0.70,1.26
26.161,-0.43,0.47,0.36,0.73
26.171,-0.29,-0.04,0.18,0.34
26.181,-0.12,-0.26,0.02,0.28
26.191,0.08,-0.22,0.04,0.24
26.201,0.29,0.11,-0.09,0.32
26.211,0.39,0.24,-0.21,0.50
26.220,0.49,0.39,0.21,0.66
26.230,0.49,0.27,0.49,0.74
26.241,0.44,0.23,0.91,1.04
26.251,0.53,0.47,1.00,1.23
26.260,0.40,0.75,0.43,0.96
26.270,0.19,1.19,0.23,1.23
26.280,0.04,1.64,0.13,1.65
26.290,-0.20,2.04,0.09,2.05
26.301,-0.26,2.38,0.63,2.48
26.311,-0.05,2.56,0.70,2.65
26.320,-0.27,2.63,0.13,2.65
26.330,-1.00,2.51,0.17,2.70
26.340,-0.45,1.56,0.35,1.66
26.350,0.36,0.73,-0.31,0.87
26.361,0.28,0.39,-1.00,1.11
26.370,0.09,0.60,-1.32,1.46
26.380,-0.05,3.01,-1.35,3.30
26.390,0.60,3.75,-0.48,3.82
26.401,2.57,-0.25,0.04,2.59
26.410,1.22,0.60,0.69,1.52
26.420,0.91,1.72,-0.11,1.95
26.430,0.95,-0.24,0.01,0.98
26.440,0.38,-0.06,-0.25,0.46
26.450,0.44,0.69,-0.88,1.20
26.461,0.38,0.63,-1.25,1.45
26.470,0.59,1.05,-0.83,1.46
26.480,1.70,0.76,1.21,2.22
26.490,2.25,1.51,1.51,3.10
26.500,1.95,0.57,0.99,2.26
26.510,0.91,-1.58,0.69,1.95
26.520,0.58,-2.88,-0.01,2.94
26.530,0.48,-2.82,-0.59,2.92
26.540,0.20,-0.19,-0.75,0.80
26.550,-0.06,2.97,-1.32,3.25
26.560,0.93,1.79,-0.62,2.11
26.570,1.69,1.30,0.27,2.14
26.580,1.78,2.01,-0.15,2.69
26.590,1.89,1.76,0.31,2.60
26.600,1.45,1.77,-0.43,2.33
26.610,1.50,1.55,-0.85,2.32
26.620,2.42,2.23,-1.54,3.63
26.630,2.18,3.34,-1.09,4.13
26.640,2.60,2.35,-0.93,3.62
26.650,1.42,3.06,1.37,3.64
26.660,0.70,2.71,-0.52,2.85
26.670,2.66,7.23,1.33,7.82
26.680,6.58,8.83,-0.80,11.04
26.690,6.01,5.86,-6.24,10.46
26.700,4.61,3.01,-4.43,7.07
26.710,4.15,-0.62,-4.80,6.38
26.720,3.17,-3.41,-4.23,6.29
26.730,1.85,-4.17,-3.95,6.04
26.740,0.05,-1.45,-4.35,4.59
26.750,-0.04,2.61,-6.69,7.19
26.760,1.65,4.03,-8.26,9.34
26.770,2.81,3.39,-6.63,7.96
26.780,2.95,1.77,-4.86,5.96
26.790,2.27,0.20,-5.38,5.85
26.800,1.06,-1.04,-6.05,6.23
26.810,-0.17,-2.09,-5.42,5.81
26.820,-1.38,-2.39,-4.20,5.02
26.830,-2.36,-1.19,-4.16,4.92
26.840,-2.69,-0.25,-4.69,5.41
26.849,-3.00,0.05,-3.41,4.54
26.860,-3.18,-0.07,-2.93,4.32
26.870,-3.06,-0.30,-3.27,4.49
26.880,-3.00,-0.56,-3.22,4.44
26.890,-3.30,-0.67,-3.64,4.96
26.900,-3.54,-0.81,-3.83,5.28
26.910,-3.57,-0.99,-3.18,4.89
26.919,-3.52,-0.83,-2.70,4.51
26.930,-3.66,0.03,-2.94,4.69
26.940,-3.46,0.60,-2.68,4.41
26.950,-3.02,0.25,-1.73,3.49
26.960,-2.53,-0.32,-1.14,2.80
26.969,-2.41,-0.64,-1.12,2.73
26.979,-2.60,-0.63,-2.19,3.46
26.989,-2.80,-0.76,-2.70,3.96
26.999,-2.70,-0.98,-2.47,3.79
27.009,-2.39,-1.18,-1.48,3.05
27.019,-2.38,-0.69,-0.44,2.51
27.030,-2.34,-0.46,-0.19,2.39
27.039,-2.23,-0.81,0.51,2.43
27.049,-1.96,-0.93,1.35,2.56
27.059,-1.66,-0.68,1.35,2.24
27.069,-1.85,-0.67,0.46,2.02
27.079,-2.10,-1.76,0.26,2.75
27.089,-2.40,-2.21,1.05,3.42
27.099,-2.76,-0.13,1.06,2.96
27.109,-2.21,1.28,0.22,2.57
27.119,-1.54,2.19,-0.13,2.68
27.129,-0.76,2.93,0.80,3.13
27.139,-0.49,3.06,2.09,3.74
27.149,-0.44,1.73,2.60,3.15
27.159,-0.58,0.18,2.92,2.98
27.169,-1.04,-1.33,2.25,2.81
27.179,-1.57,-2.58,0.95,3.17
27.189,-2.08,-1.98,-1.05,3.06
27.199,-1.98,0.36,-2.60,3.29
27.209,-1.04,0.79,-1.25,1.81
27.219,-0.58,0.92,1.30,1.70
27.229,-0.32,1.32,1.94,2.37
27.239,-0.65,1.47,2.29,2.80
27.249,-0.69,0.23,2.21,2.32
27.259,-1.02,-0.41,2.13,2.40
27.269,-3.54,-1.31,9.48,10.20
27.279,-2.24,-1.39,-0.96,2.80
27.289,-2.22,-0.40,4.15,4.72
27.299,-1.76,-1.34,1.43,2.63
27.309,-1.52,-1.10,0.84,2.06
27.319,-2.00,-1.51,1.82,3.09
27.329,-1.69,-2.01,1.25,2.91
27.339,-0.69,-1.47,1.10,1.96
27.349,0.46,-0.90,1.49,1.80
27.359,1.19,-0.95,1.72,2.30
27.369,1.10,-1.34,2.43,2.99
27.379,1.02,-1.34,3.14,3.57
27.389,0.53,-0.53,2.22,2.35
27.399,-2.55,-0.64,2.23,3.45
27.409,-4.53,-0.46,4.74,6.57
27.419,-4.15,0.23,5.30,6.74
27.429,-2.62,2.23,5.74,6.70
27.439,-1.95,2.15,3.27,4.37
27.449,-2.52,0.34,3.30,4.17
27.459,-3.62,0.28,3.56,5.09
27.469,-4.30,2.37,1.87,5.25
27.479,-3.85,3.05,0.88,4.99
27.489,-3.66,2.47,1.47,4.65
27.499,-3.52,1.77,1.62,4.26
27.509,-2.52,1.97,1.31,3.46
27.519,-1.46,2.45,0.78,2.96
27.529,-0.88,2.16,0.35,2.36
27.539,-0.72,1.46,0.22,1.64
27.548,-0.68,0.90,0.16,1.13
27.559,-0.26,0.70,0.14,0.76
27.568,0.26,0.41,-0.21,0.54
27.579,0.17,-0.12,-0.72,0.75
27.588,0.29,-0.34,-0.95,1.05
27.599,0.85,-0.17,-1.43,1.68
27.608,1.34,-0.30,-1.96,2.40
27.619,1.72,-0.71,-2.11,2.81
27.628,1.94,-1.11,-2.11,3.07
27.639,1.90,-1.38,-2.17,3.20
27.649,1.84,-1.33,-2.36,3.28
27.659,1.70,-0.98,-2.74,3.37
27.668,1.33,-0.40,-3.06,3.36
27.679,0.98,0.18,-3.06,3.22
27.688,0.72,0.47,-2.76,2.89
27.698,0.57,0.28,-2.71,2.78
27.708,0.48,-0.02,-2.59,2.64
27.718,0.29,-0.09,-2.32,2.34
27.728,0.13,-0.16,-2.11,2.12
27.738,0.06,-0.29,-1.80,1.83
27.748,-0.07,-0.30,-1.54,1.57
27.758,-0.28,-0.30,-1.33,1.39
27.768,-0.54,-0.15,-1.29,1.40
27.778,-0.74,0.08,-1.31,1.51
27.788,-0.96,0.04,-0.88,1.30
27.799,-1.95,-0.17,2.93,3.53
27.808,-2.95,-0.81,4.13,5.14
27.818,-1.87,-0.78,1.37,2.44
27.828,-0.64,-0.15,1.04,1.23
27.838,-0.31,-0.40,0.92,1.05
27.848,-0.34,-0.51,0.09,0.62
27.858,-0.47,0.01,-0.42,0.63
27.868,-0.32,0.57,-0.99,1.18
27.878,-0.18,0.52,-1.14,1.27
27.888,-0.19,0.12,-0.84,0.87
27.899,-0.15,-0.13,-0.30,0.36
27.908,-0.07,-0.22,0.36,0.43
27.918,-0.01,-0.53,0.82,0.98
27.928,0.21,-0.91,1.20,1.52
27.938,0.47,-1.19,1.71,2.13
27.948,0.32,-1.49,1.95,2.48
27.958,0.59,-1.20,1.48,1.99
27.968,1.00,-0.75,0.94,1.56
27.978,1.30,-0.55,0.27,1.44
27.988,1.60,-0.20,-0.07,1.62
27.998,1.61,0.17,-0.07,1.62
28.008,1.27,0.29,0.16,1.31
28.018,0.71,0.34,0.60,0.99
28.028,0.24,0.50,0.97,1.12
28.038,0.05,0.60,1.00,1.17
28.048,0.11,0.46,0.81,0.93
28.058,0.37,0.39,0.58,0.80
28.068,0.62,0.36,0.46,0.85
28.078,0.81,0.25,0.44,0.95
28.088,0.85,0.07,0.38,0.93
28.098,0.81,-0.16,0.35,0.90
28.108,0.75,-0.24,0.31,0.85
28.118,0.63,-0.16,0.16,0.67
28.128,0.35,-0.03,0.04,0.35
28.138,0.26,0.07,0.01,0.27
28.148,0.33,0.02,-0.12,0.35
28.158,0.46,-0.02,-0.29,0.55
28.168,0.61,0.06,-0.40,0.73
28.177,0.71,0.10,-0.27,0.77
28.188,0.69,-0.04,-0.01,0.69
28.198,0.58,-0.18,0.03,0.61
28.208,0.51,-0.08,-0.00,0.52
28.217,0.47,0.03,-0.01,0.47
28.228,0.46,0.08,-0.04,0.47
28.238,0.40,0.13,-0.06,0.43
28.248,0.23,0.14,0.07,0.28
28.257,-0.00,0.16,0.32,0.36
28.268,0.08,0.16,0.40,0.44
28.277,0.30,0.07,0.34,0.45
28.287,0.42,0.05,0.31,0.52
28.297,0.51,0.11,0.18,0.56
28.308,0.63,0.20,-0.04,0.66
28.317,0.71,0.23,-0.11,0.75
28.328,0.78,0.17,-0.17,0.82
28.337,0.80,0.06,-0.20,0.82
28.347,0.77,0.04,-0.10,0.78
28.357,0.59,0.01,0.06,0.60
28.367,0.39,-0.05,0.35,0.52
28.377,0.20,-0.16,0.68,0.72
28.387,0.14,-0.22,0.76,0.80
28.397,0.20,-0.22,0.64,0.70
28.407,0.28,-0.21,0.36,0.51
28.417,0.34,-0.19,0.10,0.40
28.427,0.39,-0.12,-0.06,0.41
28.437,0.44,-0.05,-0.14,0.47
28.447,0.48,-0.05,-0.27,0.55
28.457,0.50,-0.13,-0.38,0.64
28.467,0.52,-0.22,-0.27,0.63
28.477,0.36,-0.27,-0.01,0.45
28.487,0.05,-0.22,0.32,0.39
28.497,-0.07,-0.13,0.48,0.50
28.507,-0.03,-0.16,0.33,0.37
28.517,0.03,-0.11,0.13,0.18
28.527,0.09,0.03,-0.06,0.11
28.537,0.18,0.18,-0.23,0.34
28.547,0.25,0.24,-0.24,0.43
28.557,0.29,0.24,-0.17,0.41
28.567,0.27,0.21,-0.08,0.35
28.577,0.15,0.21,-0.00,0.26
28.587,0.06,0.23,0.10,0.26
28.597,-0.03,0.32,0.18,0.37
28.607,-0.11,0.32,0.27,0.44
28.617,-0.08,0.28,0.41,0.50
28.627,0.03,0.19,0.46,0.50
28.637,0.15,0.13,0.48,0.51
28.647,0.20,0.14,0.39,0.47
28.657,0.27,0.13,0.25,0.39
28.667,0.29,0.06,0.13,0.32
28.677,0.25,0.06,0.07,0.26
28.687,0.20,0.02,-0.03,0.20
28.697,0.12,-0.00,-0.08,0.14
28.707,0.02,0.01,0.02,0.02
28.717,-0.15,0.03,0.13,0.20
28.727,-0.21,0.10,0.14,0.27
28.737,-0.17,0.16,0.08,0.24
28.747,-0.13,0.17,0.02,0.21
28.757,-0.07,0.20,-0.03,0.22
28.767,0.02,0.23,-0.11,0.25
28.777,0.11,0.21,-0.19,0.30
28.787,0.14,0.18,-0.21,0.31
28.797,0.15,0.14,-0.19,0.28
28.807,0.13,0.13,-0.15,0.24
28.817,0.05,0.14,-0.12,0.19
28.827,-0.03,0.15,-0.00,0.16
28.837,-0.05,0.11,0.05,0.13
28.847,-0.02,0.05,0.02,0.06
28.857,0.01,0.05,-0.02,0.05
28.867,0.05,0.04,-0.03,0.06
28.877,0.05,0.02,-0.11,0.13
28.887,0.08,0.02,-0.14,0.16
28.897,0.09,-0.03,-0.13,0.16
28.907,0.09,-0.02,-0.12,0.15
28.917,0.07,0.01,-0.06,0.10
28.927,0.03,0.04,-0.02,0.05
28.937,0.02,0.06,-0.02,0.07
28.946,0.06,0.05,-0.06,0.10
28.956,0.10,0.05,-0.08,0.14
28.967,0.06,0.06,-0.05,0.10
28.977,0.02,0.06,-0.01,0.06
28.986,0.04,0.05,-0.01,0.07
28.997,0.07,0.07,-0.06,0.11
29.006,0.05,0.10,-0.02,0.11
29.017,0.05,0.06,0.05,0.09
29.026,0.04,0.04,0.08,0.10
29.036,0.03,0.05,0.15,0.16
29.046,0.00,-0.02,0.20,0.20
29.056,-0.01,0.00,0.19,0.19
29.066,-0.02,0.08,0.24,0.26
29.077,-0.02,0.00,0.26,0.26
29.086,0.01,-0.05,0.29,0.29
29.096,0.03,-0.03,0.25,0.26
29.106,0.03,-0.00,0.13,0.13
29.116,0.06,0.04,0.07,0.10
29.126,0.14,0.03,-0.00,0.15
29.136,0.23,-0.03,-0.00,0.23
29.146,0.24,-0.01,-0.03,0.24
29.156,0.20,0.00,-0.03,0.20
29.166,0.16,-0.01,0.04,0.16
29.176,0.08,-0.01,0.12,0.14
29.186,0.05,0.03,0.15,0.16
29.196,0.08,0.04,0.05,0.10
29.206,0.14,0.06,-0.08,0.17
29.216,0.20,0.09,-0.19,0.29
29.226,0.21,0.13,-0.20,0.32
29.236,0.18,0.11,-0.14,0.25
29.246,0.16,0.11,-0.12,0.23
29.256,0.21,0.12,-0.10,0.27
29.266,0.24,0.09,-0.08,0.27
29.276,0.25,0.10,-0.10,0.29
29.286,0.24,0.09,-0.13,0.29
29.296,0.22,0.01,-0.09,0.24
29.306,0.20,0.03,-0.02,0.20
29.316,0.18,0.01,0.01,0.18
29.326,0.17,0.01,0.11,0.20
29.336,0.09,0.02,0.17,0.20
29.346,0.07,0.02,0.26,0.27
29.356,0.06,0.04,0.27,0.28
29.366,0.08,0.01,0.25,0.26
29.376,0.12,0.01,0.19,0.22
29.386,0.16,-0.01,0.13,0.21
29.396,0.20,0.03,0.08,0.22
29.406,0.26,0.08,-0.05,0.27
29.416,0.29,0.07,-0.09,0.31
29.426,0.24,0.01,-0.01,0.24
29.436,0.17,-0.01,0.07,0.18
29.446,0.14,-0.03,0.09,0.17
29.456,0.15,-0.04,0.07,0.17
29.466,0.20,-0.01,-0.04,0.21
29.476,0.26,0.01,-0.35,0.44
29.486,0.29,0.23,-1.73,1.76
29.496,0.41,0.31,-0.89,1.03
29.506,0.26,-0.20,-0.35,0.48
29.516,0.21,-0.32,0.67,0.77
29.526,0.08,-0.20,1.12,1.14
29.536,-0.13,-0.15,1.66,1.67
29.546,-0.27,0.03,1.90,1.92
29.555,-0.16,0.26,1.17,1.21
29.566,0.27,0.23,0.37,0.51
29.575,0.66,-0.14,-0.32,0.75
29.586,0.78,-0.10,-0.69,1.04
